delay,freq,condition,trials.thisRepN,trials.thisTrialN,trials.thisN,trials.thisIndex,polygon.started,polygon_2.started,key_resp.started,polygon.stopped,key_resp.keys,key_resp.rt,sound_1.started,sound_1.stopped,text.started,textbox.started,button.started,textbox.text,button.numClicks,button.timesOn,button.timesOff,participant,session,date,expName,psychopyVersion,frameRate,
0.1,400,unexp,0,0,0,0,11.297355500006233,12.263720300004934,12.263720300004934,12.297010900001624,space,0.4045808999799192,12.79657563001383,13.125200300011784,13.125200300011784,13.125200300011784,13.125200300011784,450,1,[2.2740491000004113],[2.2740601999976207],552415,001,2022-11-10_22h47.58.612,T7,2022.2.4,59.9800146553187,
0.4,400,unexp,0,1,1,1,15.363531300012255,16.363886400009505,16.363886400009505,16.363886400009505,space,0.8903577999881236,17.68008853000647,,17.9802509000001,17.9802509000001,17.9802509000001,560,2,"[2.2740491000004113, 2.4660926000069594]","[2.2740601999976207, 2.4661017000034917]",552415,001,2022-11-10_22h47.58.612,T7,2022.2.4,59.9800146553187,
0.1,1000,exp,0,2,2,3,20.446633200001088,21.44638570000825,21.44638570000825,21.44638570000825,space,3.31157949999033,24.87992483000853,,25.179886500001885,25.179886500001885,25.179886500001885,600,3,"[2.2740491000004113, 2.4660926000069594, 4.548173000002862]","[2.2740601999976207, 2.4661017000034917, 4.548183399994741]",552415,001,2022-11-10_22h47.58.612,T7,2022.2.4,59.9800146553187,
0.4,1000,exp,0,3,3,4,29.72983930000919,30.730040800001007,30.730040800001007,30.730040800001007,space,0.7945417999872006,31.94652533000335,,32.24632860001293,32.24632860001293,32.24632860001293,500,4,"[2.2740491000004113, 2.4660926000069594, 4.548173000002862, 7.7325188999966485]","[2.2740601999976207, 2.4661017000034917, 4.548183399994741, 7.73252639999555]",552415,001,2022-11-10_22h47.58.612,T7,2022.2.4,59.9800146553187,
0.4,1000,exp,0,4,4,10,39.97940480000398,40.97957700000552,40.97957700000552,40.97957700000552,space,0.24347029998898506,41.64630273000803,41.9464813000086,41.9464813000086,41.9464813000086,41.9464813000086,600,5,"[2.2740491000004113, 2.4660926000069594, 4.548173000002862, 7.7325188999966485, 2.74882140000409]","[2.2740601999976207, 2.4661017000034917, 4.548183399994741, 7.73252639999555, 2.748834900005022]",552415,001,2022-11-10_22h47.58.612,T7,2022.2.4,59.9800146553187,
0.7,1000,exp,0,5,5,5,44.69585490001191,45.69593600000371,45.69593600000371,45.69593600000371,space,3.107306999983848,49.52957463001367,49.829324500009534,49.829324500009534,49.829324500009534,49.829324500009534,684,6,"[2.2740491000004113, 2.4660926000069594, 4.548173000002862, 7.7325188999966485, 2.74882140000409, 3.749088699987624]","[2.2740601999976207, 2.4661017000034917, 4.548183399994741, 7.73252639999555, 2.748834900005022, 3.749097299994901]",552415,001,2022-11-10_22h47.58.612,T7,2022.2.4,59.9800146553187,
0.4,1000,exp,0,6,6,7,53.579403200012166,54.57944850000786,54.57944850000786,54.57944850000786,space,2.8371161999821197,57.84606353000272,,58.1457769000117,58.1457769000117,58.1457769000117,560,7,"[2.2740491000004113, 2.4660926000069594, 4.548173000002862, 7.7325188999966485, 2.74882140000409, 3.749088699987624, 1.9485854000085965]","[2.2740601999976207, 2.4661017000034917, 4.548183399994741, 7.73252639999555, 2.748834900005022, 3.749097299994901, 1.9485934000113048]",552415,001,2022-11-10_22h47.58.612,T7,2022.2.4,59.9800146553187,
0.7,1000,exp,0,7,7,11,60.09587740000279,61.0955193000118,61.0955193000118,61.0955193000118,space,0.9388579999795184,62.762684930002436,,63.0623775000131,63.0623775000131,63.0623775000131,500,8,"[2.2740491000004113, 2.4660926000069594, 4.548173000002862, 7.7325188999966485, 2.74882140000409, 3.749088699987624, 1.9485854000085965, 3.414302899996983]","[2.2740601999976207, 2.4661017000034917, 4.548183399994741, 7.73252639999555, 2.748834900005022, 3.749097299994901, 1.9485934000113048, 3.414312000008067]",552415,001,2022-11-10_22h47.58.612,T7,2022.2.4,59.9800146553187,
0.7,400,unexp,0,8,8,2,66.4790178000112,67.47929650000879,67.47929650000879,67.47929650000879,space,0.5285709999880055,68.72895013001398,69.02902910001285,69.02902910001285,69.02902910001285,69.02902910001285,400,9,"[2.2740491000004113, 2.4660926000069594, 4.548173000002862, 7.7325188999966485, 2.74882140000409, 3.749088699987624, 1.9485854000085965, 3.414302899996983, 2.3810407999990275]","[2.2740601999976207, 2.4661017000034917, 4.548183399994741, 7.73252639999555, 2.748834900005022, 3.749097299994901, 1.9485934000113048, 3.414312000008067, 2.381051500007743]",552415,001,2022-11-10_22h47.58.612,T7,2022.2.4,59.9800146553187,
0.1,1000,exp,0,9,9,9,71.41237510000065,72.4123271000135,72.4123271000135,72.4123271000135,space,1.4306829999841284,73.96191933000519,,74.26213480001024,74.26213480001024,74.26213480001024,568,10,"[2.2740491000004113, 2.4660926000069594, 4.548173000002862, 7.7325188999966485, 2.74882140000409, 3.749088699987624, 1.9485854000085965, 3.414302899996983, 2.3810407999990275, 2.8987961999955587]","[2.2740601999976207, 2.4661017000034917, 4.548183399994741, 7.73252639999555, 2.748834900005022, 3.749097299994901, 1.9485934000113048, 3.414312000008067, 2.381051500007743, 2.8988053999928525]",552415,001,2022-11-10_22h47.58.612,T7,2022.2.4,59.9800146553187,
0.7,1000,exp,0,10,10,8,77.16227050000452,78.16236840000784,78.16236840000784,78.16236840000784,space,0.06856549998337869,78.96205313000537,,79.26238890000968,79.26238890000968,79.26238890000968,543,11,"[2.2740491000004113, 2.4660926000069594, 4.548173000002862, 7.7325188999966485, 2.74882140000409, 3.749088699987624, 1.9485854000085965, 3.414302899996983, 2.3810407999990275, 2.8987961999955587, 3.0976198999996996]","[2.2740601999976207, 2.4661017000034917, 4.548183399994741, 7.73252639999555, 2.748834900005022, 3.749097299994901, 1.9485934000113048, 3.414312000008067, 2.381051500007743, 2.8988053999928525, 3.097628400006215]",552415,001,2022-11-10_22h47.58.612,T7,2022.2.4,59.9800146553187,
0.1,1000,exp,0,11,11,6,82.36195760000555,83.36230649999925,83.36230649999925,83.36230649999925,space,0.18042159998731222,83.6619658300071,83.96234990000085,83.96234990000085,83.96234990000085,83.96234990000085,674,12,"[2.2740491000004113, 2.4660926000069594, 4.548173000002862, 7.7325188999966485, 2.74882140000409, 3.749088699987624, 1.9485854000085965, 3.414302899996983, 2.3810407999990275, 2.8987961999955587, 3.0976198999996996, 3.265393599998788]","[2.2740601999976207, 2.4661017000034917, 4.548183399994741, 7.73252639999555, 2.748834900005022, 3.749097299994901, 1.9485934000113048, 3.414312000008067, 2.381051500007743, 2.8988053999928525, 3.097628400006215, 3.265400699994643]",552415,001,2022-11-10_22h47.58.612,T7,2022.2.4,59.9800146553187,
0.7,400,unexp,1,0,12,2,87.22868800000288,88.22885720001068,88.22885720001068,88.22885720001068,space,1.1401353999826824,90.09550153000164,,90.39513720000105,90.39513720000105,90.39513720000105,546,13,"[2.2740491000004113, 2.4660926000069594, 4.548173000002862, 7.7325188999966485, 2.74882140000409, 3.749088699987624, 1.9485854000085965, 3.414302899996983, 2.3810407999990275, 2.8987961999955587, 3.0976198999996996, 3.265393599998788, 3.9487100999976974]","[2.2740601999976207, 2.4661017000034917, 4.548183399994741, 7.73252639999555, 2.748834900005022, 3.749097299994901, 1.9485934000113048, 3.414312000008067, 2.381051500007743, 2.8988053999928525, 3.097628400006215, 3.265400699994643, 3.9487213999964297]",552415,001,2022-11-10_22h47.58.612,T7,2022.2.4,59.9800146553187,
0.4,1000,exp,1,1,13,10,94.34502020000946,95.34523730000365,95.34523730000365,95.34523730000365,space,0.31475249999493826,96.07859303000733,,96.37845860001107,96.37845860001107,96.37845860001107,695 ,14,"[2.2740491000004113, 2.4660926000069594, 4.548173000002862, 7.7325188999966485, 2.74882140000409, 3.749088699987624, 1.9485854000085965, 3.414302899996983, 2.3810407999990275, 2.8987961999955587, 3.0976198999996996, 3.265393599998788, 3.9487100999976974, 4.481439399998635]","[2.2740601999976207, 2.4661017000034917, 4.548183399994741, 7.73252639999555, 2.748834900005022, 3.749097299994901, 1.9485934000113048, 3.414312000008067, 2.381051500007743, 2.8988053999928525, 3.097628400006215, 3.265400699994643, 3.9487213999964297, 4.481448499995167]",552415,001,2022-11-10_22h47.58.612,T7,2022.2.4,59.9800146553187,
0.7,1000,exp,1,2,14,5,100.86181729999953,101.86170220001077,101.86170220001077,101.86170220001077,space,0.3432982999802334,102.92920133000298,,103.22822680001264,103.22822680001264,103.22822680001264,635,15,"[2.2740491000004113, 2.4660926000069594, 4.548173000002862, 7.7325188999966485, 2.74882140000409, 3.749088699987624, 1.9485854000085965, 3.414302899996983, 2.3810407999990275, 2.8987961999955587, 3.0976198999996996, 3.265393599998788, 3.9487100999976974, 4.481439399998635, 3.597594699996989]","[2.2740601999976207, 2.4661017000034917, 4.548183399994741, 7.73252639999555, 2.748834900005022, 3.749097299994901, 1.9485934000113048, 3.414312000008067, 2.381051500007743, 2.8988053999928525, 3.097628400006215, 3.265400699994643, 3.9487213999964297, 4.481448499995167, 3.597600399996736]",552415,001,2022-11-10_22h47.58.612,T7,2022.2.4,59.9800146553187,
0.4,1000,exp,1,3,15,7,106.82829889999994,107.82826410001144,107.82826410001144,107.82826410001144,space,0.4418458999862196,108.69474023000221,,108.99503930000355,108.99503930000355,108.99503930000355,350,16,"[2.2740491000004113, 2.4660926000069594, 4.548173000002862, 7.7325188999966485, 2.74882140000409, 3.749088699987624, 1.9485854000085965, 3.414302899996983, 2.3810407999990275, 2.8987961999955587, 3.0976198999996996, 3.265393599998788, 3.9487100999976974, 4.481439399998635, 3.597594699996989, 3.999254199996358]","[2.2740601999976207, 2.4661017000034917, 4.548183399994741, 7.73252639999555, 2.748834900005022, 3.749097299994901, 1.9485934000113048, 3.414312000008067, 2.381051500007743, 2.8988053999928525, 3.097628400006215, 3.265400699994643, 3.9487213999964297, 4.481448499995167, 3.597600399996736, 3.9992650999920443]",552415,001,2022-11-10_22h47.58.612,T7,2022.2.4,59.9800146553187,
0.4,400,unexp,1,4,16,1,112.99459570000181,113.99502640000719,113.99502640000719,113.99502640000719,space,0.4241341999877477,114.84471923001111,115.14478270000836,115.14478270000836,115.14478270000836,115.14478270000836,250,17,"[2.2740491000004113, 2.4660926000069594, 4.548173000002862, 7.7325188999966485, 2.74882140000409, 3.749088699987624, 1.9485854000085965, 3.414302899996983, 2.3810407999990275, 2.8987961999955587, 3.0976198999996996, 3.265393599998788, 3.9487100999976974, 4.481439399998635, 3.597594699996989, 3.999254199996358, 7.032008900001529]","[2.2740601999976207, 2.4661017000034917, 4.548183399994741, 7.73252639999555, 2.748834900005022, 3.749097299994901, 1.9485934000113048, 3.414312000008067, 2.381051500007743, 2.8988053999928525, 3.097628400006215, 3.265400699994643, 3.9487213999964297, 4.481448499995167, 3.597600399996736, 3.9992650999920443, 7.0320212000078754]",552415,001,2022-11-10_22h47.58.612,T7,2022.2.4,59.9800146553187,
0.1,1000,exp,1,5,17,9,122.17787580000004,123.17802770000708,123.17802770000708,123.17802770000708,space,0.47570309998991434,123.77798383000773,,124.07798920001369,124.07798920001369,124.07798920001369,460,18,"[2.2740491000004113, 2.4660926000069594, 4.548173000002862, 7.7325188999966485, 2.74882140000409, 3.749088699987624, 1.9485854000085965, 3.414302899996983, 2.3810407999990275, 2.8987961999955587, 3.0976198999996996, 3.265393599998788, 3.9487100999976974, 4.481439399998635, 3.597594699996989, 3.999254199996358, 7.032008900001529, 3.365154099999927]","[2.2740601999976207, 2.4661017000034917, 4.548183399994741, 7.73252639999555, 2.748834900005022, 3.749097299994901, 1.9485934000113048, 3.414312000008067, 2.381051500007743, 2.8988053999928525, 3.097628400006215, 3.265400699994643, 3.9487213999964297, 4.481448499995167, 3.597600399996736, 3.9992650999920443, 7.0320212000078754, 3.365163200011011]",552415,001,2022-11-10_22h47.58.612,T7,2022.2.4,59.9800146553187,
0.7,1000,exp,1,6,18,8,127.44472600000154,128.44413700001314,128.44413700001314,128.44413700001314,space,0.5286846999952104,129.69446893000276,,129.99488740001107,129.99488740001107,129.99488740001107,769,19,"[2.2740491000004113, 2.4660926000069594, 4.548173000002862, 7.7325188999966485, 2.74882140000409, 3.749088699987624, 1.9485854000085965, 3.414302899996983, 2.3810407999990275, 2.8987961999955587, 3.0976198999996996, 3.265393599998788, 3.9487100999976974, 4.481439399998635, 3.597594699996989, 3.999254199996358, 7.032008900001529, 3.365154099999927, 3.015676099996199]","[2.2740601999976207, 2.4661017000034917, 4.548183399994741, 7.73252639999555, 2.748834900005022, 3.749097299994901, 1.9485934000113048, 3.414312000008067, 2.381051500007743, 2.8988053999928525, 3.097628400006215, 3.265400699994643, 3.9487213999964297, 4.481448499995167, 3.597600399996736, 3.9992650999920443, 7.0320212000078754, 3.365163200011011, 3.015685399994254]",552415,001,2022-11-10_22h47.58.612,T7,2022.2.4,59.9800146553187,
0.1,400,unexp,1,7,19,0,133.01116430001275,134.01100360001146,134.01100360001146,134.01100360001146,space,0.4752584999805549,134.61100223000102,,134.91087030000926,134.91087030000926,134.91087030000926,567,20,"[2.2740491000004113, 2.4660926000069594, 4.548173000002862, 7.7325188999966485, 2.74882140000409, 3.749088699987624, 1.9485854000085965, 3.414302899996983, 2.3810407999990275, 2.8987961999955587, 3.0976198999996996, 3.265393599998788, 3.9487100999976974, 4.481439399998635, 3.597594699996989, 3.999254199996358, 7.032008900001529, 3.365154099999927, 3.015676099996199, 1.7659911000082502]","[2.2740601999976207, 2.4661017000034917, 4.548183399994741, 7.73252639999555, 2.748834900005022, 3.749097299994901, 1.9485934000113048, 3.414312000008067, 2.381051500007743, 2.8988053999928525, 3.097628400006215, 3.265400699994643, 3.9487213999964297, 4.481448499995167, 3.597600399996736, 3.9992650999920443, 7.0320212000078754, 3.365163200011011, 3.015685399994254, 1.765999199997168]",552415,001,2022-11-10_22h47.58.612,T7,2022.2.4,59.9800146553187,
0.1,1000,exp,1,8,20,6,136.67739940001047,137.67775890001212,137.67775890001212,137.67775890001212,space,2.8321006999904057,140.62753043000993,,140.92762260000745,140.92762260000745,140.92762260000745,694,21,"[2.2740491000004113, 2.4660926000069594, 4.548173000002862, 7.7325188999966485, 2.74882140000409, 3.749088699987624, 1.9485854000085965, 3.414302899996983, 2.3810407999990275, 2.8987961999955587, 3.0976198999996996, 3.265393599998788, 3.9487100999976974, 4.481439399998635, 3.597594699996989, 3.999254199996358, 7.032008900001529, 3.365154099999927, 3.015676099996199, 1.7659911000082502, 2.648781500000041]","[2.2740601999976207, 2.4661017000034917, 4.548183399994741, 7.73252639999555, 2.748834900005022, 3.749097299994901, 1.9485934000113048, 3.414312000008067, 2.381051500007743, 2.8988053999928525, 3.097628400006215, 3.265400699994643, 3.9487213999964297, 4.481448499995167, 3.597600399996736, 3.9992650999920443, 7.0320212000078754, 3.365163200011011, 3.015685399994254, 1.765999199997168, 2.6487905999965733]",552415,001,2022-11-10_22h47.58.612,T7,2022.2.4,59.9800146553187,
0.7,1000,exp,1,9,21,11,143.57741019999958,144.57756370000425,144.57756370000425,144.57756370000425,space,0.29660839997814037,145.5942694300058,,145.89388100001088,145.89388100001088,145.89388100001088,842,22,"[2.2740491000004113, 2.4660926000069594, 4.548173000002862, 7.7325188999966485, 2.74882140000409, 3.749088699987624, 1.9485854000085965, 3.414302899996983, 2.3810407999990275, 2.8987961999955587, 3.0976198999996996, 3.265393599998788, 3.9487100999976974, 4.481439399998635, 3.597594699996989, 3.999254199996358, 7.032008900001529, 3.365154099999927, 3.015676099996199, 1.7659911000082502, 2.648781500000041, 2.8318977000017185]","[2.2740601999976207, 2.4661017000034917, 4.548183399994741, 7.73252639999555, 2.748834900005022, 3.749097299994901, 1.9485934000113048, 3.414312000008067, 2.381051500007743, 2.8988053999928525, 3.097628400006215, 3.265400699994643, 3.9487213999964297, 4.481448499995167, 3.597600399996736, 3.9992650999920443, 7.0320212000078754, 3.365163200011011, 3.015685399994254, 1.765999199997168, 2.6487905999965733, 2.831904599996051]",552415,001,2022-11-10_22h47.58.612,T7,2022.2.4,59.9800146553187,
0.4,1000,exp,1,10,22,4,148.72733130000415,149.72741530000349,149.72741530000349,149.72741530000349,space,1.5664173999830382,151.71052493001042,,152.01063100001193,152.01063100001193,152.01063100001193,678,23,"[2.2740491000004113, 2.4660926000069594, 4.548173000002862, 7.7325188999966485, 2.74882140000409, 3.749088699987624, 1.9485854000085965, 3.414302899996983, 2.3810407999990275, 2.8987961999955587, 3.0976198999996996, 3.265393599998788, 3.9487100999976974, 4.481439399998635, 3.597594699996989, 3.999254199996358, 7.032008900001529, 3.365154099999927, 3.015676099996199, 1.7659911000082502, 2.648781500000041, 2.8318977000017185, 2.9152808000071673]","[2.2740601999976207, 2.4661017000034917, 4.548183399994741, 7.73252639999555, 2.748834900005022, 3.749097299994901, 1.9485934000113048, 3.414312000008067, 2.381051500007743, 2.8988053999928525, 3.097628400006215, 3.265400699994643, 3.9487213999964297, 4.481448499995167, 3.597600399996736, 3.9992650999920443, 7.0320212000078754, 3.365163200011011, 3.015685399994254, 1.765999199997168, 2.6487905999965733, 2.831904599996051, 2.9152893999998923]",552415,001,2022-11-10_22h47.58.612,T7,2022.2.4,59.9800146553187,
0.1,1000,exp,1,11,23,3,154.92718199999945,155.92743450000125,155.92743450000125,155.92743450000125,space,0.33695779998379294,156.3937816300051,156.69362970000657,156.69362970000657,156.69362970000657,156.69362970000657,887,24,"[2.2740491000004113, 2.4660926000069594, 4.548173000002862, 7.7325188999966485, 2.74882140000409, 3.749088699987624, 1.9485854000085965, 3.414302899996983, 2.3810407999990275, 2.8987961999955587, 3.0976198999996996, 3.265393599998788, 3.9487100999976974, 4.481439399998635, 3.597594699996989, 3.999254199996358, 7.032008900001529, 3.365154099999927, 3.015676099996199, 1.7659911000082502, 2.648781500000041, 2.8318977000017185, 2.9152808000071673, 2.1500518999964697]","[2.2740601999976207, 2.4661017000034917, 4.548183399994741, 7.73252639999555, 2.748834900005022, 3.749097299994901, 1.9485934000113048, 3.414312000008067, 2.381051500007743, 2.8988053999928525, 3.097628400006215, 3.265400699994643, 3.9487213999964297, 4.481448499995167, 3.597600399996736, 3.9992650999920443, 7.0320212000078754, 3.365163200011011, 3.015685399994254, 1.765999199997168, 2.6487905999965733, 2.831904599996051, 2.9152893999998923, 2.150060799991479]",552415,001,2022-11-10_22h47.58.612,T7,2022.2.4,59.9800146553187,
0.1,1000,exp,2,0,24,3,158.84357810000074,159.8435843000043,159.8435843000043,159.8435843000043,space,0.3735854999831645,160.34375593001022,,160.6436301000067,160.6436301000067,160.6436301000067,458,25,"[2.2740491000004113, 2.4660926000069594, 4.548173000002862, 7.7325188999966485, 2.74882140000409, 3.749088699987624, 1.9485854000085965, 3.414302899996983, 2.3810407999990275, 2.8987961999955587, 3.0976198999996996, 3.265393599998788, 3.9487100999976974, 4.481439399998635, 3.597594699996989, 3.999254199996358, 7.032008900001529, 3.365154099999927, 3.015676099996199, 1.7659911000082502, 2.648781500000041, 2.8318977000017185, 2.9152808000071673, 2.1500518999964697, 8.614664799999446]","[2.2740601999976207, 2.4661017000034917, 4.548183399994741, 7.73252639999555, 2.748834900005022, 3.749097299994901, 1.9485934000113048, 3.414312000008067, 2.381051500007743, 2.8988053999928525, 3.097628400006215, 3.265400699994643, 3.9487213999964297, 4.481448499995167, 3.597600399996736, 3.9992650999920443, 7.0320212000078754, 3.365163200011011, 3.015685399994254, 1.765999199997168, 2.6487905999965733, 2.831904599996051, 2.9152893999998923, 2.150060799991479, 8.614681199993356]",552415,001,2022-11-10_22h47.58.612,T7,2022.2.4,59.9800146553187,
0.4,1000,exp,2,1,25,7,169.260110800009,170.26036410000233,170.26036410000233,170.26036410000233,space,0.4142969999811612,171.09351103000807,171.3936575000116,171.3936575000116,171.3936575000116,171.3936575000116,568,26,"[2.2740491000004113, 2.4660926000069594, 4.548173000002862, 7.7325188999966485, 2.74882140000409, 3.749088699987624, 1.9485854000085965, 3.414302899996983, 2.3810407999990275, 2.8987961999955587, 3.0976198999996996, 3.265393599998788, 3.9487100999976974, 4.481439399998635, 3.597594699996989, 3.999254199996358, 7.032008900001529, 3.365154099999927, 3.015676099996199, 1.7659911000082502, 2.648781500000041, 2.8318977000017185, 2.9152808000071673, 2.1500518999964697, 8.614664799999446, 3.215225799998734]","[2.2740601999976207, 2.4661017000034917, 4.548183399994741, 7.73252639999555, 2.748834900005022, 3.749097299994901, 1.9485934000113048, 3.414312000008067, 2.381051500007743, 2.8988053999928525, 3.097628400006215, 3.265400699994643, 3.9487213999964297, 4.481448499995167, 3.597600399996736, 3.9992650999920443, 7.0320212000078754, 3.365163200011011, 3.015685399994254, 1.765999199997168, 2.6487905999965733, 2.831904599996051, 2.9152893999998923, 2.150060799991479, 8.614681199993356, 3.215233700000681]",552415,001,2022-11-10_22h47.58.612,T7,2022.2.4,59.9800146553187,
0.1,1000,exp,2,2,26,9,174.6099666000082,175.61037750000833,175.61037750000833,175.61037750000833,space,0.6552976999810198,176.39347593000565,176.69342190001043,176.69342190001043,176.69342190001043,176.69342190001043,,27,"[2.2740491000004113, 2.4660926000069594, 4.548173000002862, 7.7325188999966485, 2.74882140000409, 3.749088699987624, 1.9485854000085965, 3.414302899996983, 2.3810407999990275, 2.8987961999955587, 3.0976198999996996, 3.265393599998788, 3.9487100999976974, 4.481439399998635, 3.597594699996989, 3.999254199996358, 7.032008900001529, 3.365154099999927, 3.015676099996199, 1.7659911000082502, 2.648781500000041, 2.8318977000017185, 2.9152808000071673, 2.1500518999964697, 8.614664799999446, 3.215225799998734, 0.9324475000030361]","[2.2740601999976207, 2.4661017000034917, 4.548183399994741, 7.73252639999555, 2.748834900005022, 3.749097299994901, 1.9485934000113048, 3.414312000008067, 2.381051500007743, 2.8988053999928525, 3.097628400006215, 3.265400699994643, 3.9487213999964297, 4.481448499995167, 3.597600399996736, 3.9992650999920443, 7.0320212000078754, 3.365163200011011, 3.015685399994254, 1.765999199997168, 2.6487905999965733, 2.831904599996051, 2.9152893999998923, 2.150060799991479, 8.614681199993356, 3.215233700000681, 0.9324563999980455]",552415,001,2022-11-10_22h47.58.612,T7,2022.2.4,59.9800146553187,
0.4,1000,exp,2,3,27,4,177.62652680001338,178.6269081000064,178.6269081000064,178.6269081000064,space,0.24784749999525957,179.29344273000896,179.593380300008,179.593380300008,179.593380300008,179.593380300008,390,28,"[2.2740491000004113, 2.4660926000069594, 4.548173000002862, 7.7325188999966485, 2.74882140000409, 3.749088699987624, 1.9485854000085965, 3.414302899996983, 2.3810407999990275, 2.8987961999955587, 3.0976198999996996, 3.265393599998788, 3.9487100999976974, 4.481439399998635, 3.597594699996989, 3.999254199996358, 7.032008900001529, 3.365154099999927, 3.015676099996199, 1.7659911000082502, 2.648781500000041, 2.8318977000017185, 2.9152808000071673, 2.1500518999964697, 8.614664799999446, 3.215225799998734, 0.9324475000030361, 5.95023640000727]","[2.2740601999976207, 2.4661017000034917, 4.548183399994741, 7.73252639999555, 2.748834900005022, 3.749097299994901, 1.9485934000113048, 3.414312000008067, 2.381051500007743, 2.8988053999928525, 3.097628400006215, 3.265400699994643, 3.9487213999964297, 4.481448499995167, 3.597600399996736, 3.9992650999920443, 7.0320212000078754, 3.365163200011011, 3.015685399994254, 1.765999199997168, 2.6487905999965733, 2.831904599996051, 2.9152893999998923, 2.150060799991479, 8.614681199993356, 3.215233700000681, 0.9324563999980455, 5.950248900000588]",552415,001,2022-11-10_22h47.58.612,T7,2022.2.4,59.9800146553187,
0.4,400,unexp,2,4,28,1,185.54346559999976,186.54332540000905,186.54332540000905,186.54332540000905,space,0.40058179998595733,187.35966963001118,,187.66003260000434,187.66003260000434,187.66003260000434,289,29,"[2.2740491000004113, 2.4660926000069594, 4.548173000002862, 7.7325188999966485, 2.74882140000409, 3.749088699987624, 1.9485854000085965, 3.414302899996983, 2.3810407999990275, 2.8987961999955587, 3.0976198999996996, 3.265393599998788, 3.9487100999976974, 4.481439399998635, 3.597594699996989, 3.999254199996358, 7.032008900001529, 3.365154099999927, 3.015676099996199, 1.7659911000082502, 2.648781500000041, 2.8318977000017185, 2.9152808000071673, 2.1500518999964697, 8.614664799999446, 3.215225799998734, 0.9324475000030361, 5.95023640000727, 4.215799200013862]","[2.2740601999976207, 2.4661017000034917, 4.548183399994741, 7.73252639999555, 2.748834900005022, 3.749097299994901, 1.9485934000113048, 3.414312000008067, 2.381051500007743, 2.8988053999928525, 3.097628400006215, 3.265400699994643, 3.9487213999964297, 4.481448499995167, 3.597600399996736, 3.9992650999920443, 7.0320212000078754, 3.365163200011011, 3.015685399994254, 1.765999199997168, 2.6487905999965733, 2.831904599996051, 2.9152893999998923, 2.150060799991479, 8.614681199993356, 3.215233700000681, 0.9324563999980455, 5.950248900000588, 4.215808900000411]",552415,001,2022-11-10_22h47.58.612,T7,2022.2.4,59.9800146553187,
0.7,1000,exp,2,5,29,11,191.87658300000476,192.8764630000078,192.8764630000078,192.8764630000078,space,0.30236399998830166,193.91006003000365,,194.209551500011,194.209551500011,194.209551500011,390,30,"[2.2740491000004113, 2.4660926000069594, 4.548173000002862, 7.7325188999966485, 2.74882140000409, 3.749088699987624, 1.9485854000085965, 3.414302899996983, 2.3810407999990275, 2.8987961999955587, 3.0976198999996996, 3.265393599998788, 3.9487100999976974, 4.481439399998635, 3.597594699996989, 3.999254199996358, 7.032008900001529, 3.365154099999927, 3.015676099996199, 1.7659911000082502, 2.648781500000041, 2.8318977000017185, 2.9152808000071673, 2.1500518999964697, 8.614664799999446, 3.215225799998734, 0.9324475000030361, 5.95023640000727, 4.215799200013862, 6.364784699995653]","[2.2740601999976207, 2.4661017000034917, 4.548183399994741, 7.73252639999555, 2.748834900005022, 3.749097299994901, 1.9485934000113048, 3.414312000008067, 2.381051500007743, 2.8988053999928525, 3.097628400006215, 3.265400699994643, 3.9487213999964297, 4.481448499995167, 3.597600399996736, 3.9992650999920443, 7.0320212000078754, 3.365163200011011, 3.015685399994254, 1.765999199997168, 2.6487905999965733, 2.831904599996051, 2.9152893999998923, 2.150060799991479, 8.614681199993356, 3.215233700000681, 0.9324563999980455, 5.950248900000588, 4.215808900000411, 6.3647925999976]",552415,001,2022-11-10_22h47.58.612,T7,2022.2.4,59.9800146553187,
0.1,1000,exp,2,6,30,6,200.57610930000374,201.57617160001246,201.57617160001246,201.57617160001246,space,0.31290269999590237,202.00960283000603,,202.30956460000016,202.30956460000016,202.30956460000016,572,31,"[2.2740491000004113, 2.4660926000069594, 4.548173000002862, 7.7325188999966485, 2.74882140000409, 3.749088699987624, 1.9485854000085965, 3.414302899996983, 2.3810407999990275, 2.8987961999955587, 3.0976198999996996, 3.265393599998788, 3.9487100999976974, 4.481439399998635, 3.597594699996989, 3.999254199996358, 7.032008900001529, 3.365154099999927, 3.015676099996199, 1.7659911000082502, 2.648781500000041, 2.8318977000017185, 2.9152808000071673, 2.1500518999964697, 8.614664799999446, 3.215225799998734, 0.9324475000030361, 5.95023640000727, 4.215799200013862, 6.364784699995653, 7.0481881000014255]","[2.2740601999976207, 2.4661017000034917, 4.548183399994741, 7.73252639999555, 2.748834900005022, 3.749097299994901, 1.9485934000113048, 3.414312000008067, 2.381051500007743, 2.8988053999928525, 3.097628400006215, 3.265400699994643, 3.9487213999964297, 4.481448499995167, 3.597600399996736, 3.9992650999920443, 7.0320212000078754, 3.365163200011011, 3.015685399994254, 1.765999199997168, 2.6487905999965733, 2.831904599996051, 2.9152893999998923, 2.150060799991479, 8.614681199993356, 3.215233700000681, 0.9324563999980455, 5.950248900000588, 4.215808900000411, 6.3647925999976, 7.048197600001004]",552415,001,2022-11-10_22h47.58.612,T7,2022.2.4,59.9800146553187,
0.7,1000,exp,2,7,31,5,209.3592736000137,210.35932160000084,210.35932160000084,210.35932160000084,space,0.4244715999957407,211.50909413000335,,211.80924570000207,211.80924570000207,211.80924570000207,670,32,"[2.2740491000004113, 2.4660926000069594, 4.548173000002862, 7.7325188999966485, 2.74882140000409, 3.749088699987624, 1.9485854000085965, 3.414302899996983, 2.3810407999990275, 2.8987961999955587, 3.0976198999996996, 3.265393599998788, 3.9487100999976974, 4.481439399998635, 3.597594699996989, 3.999254199996358, 7.032008900001529, 3.365154099999927, 3.015676099996199, 1.7659911000082502, 2.648781500000041, 2.8318977000017185, 2.9152808000071673, 2.1500518999964697, 8.614664799999446, 3.215225799998734, 0.9324475000030361, 5.95023640000727, 4.215799200013862, 6.364784699995653, 7.0481881000014255, 7.398983599996427]","[2.2740601999976207, 2.4661017000034917, 4.548183399994741, 7.73252639999555, 2.748834900005022, 3.749097299994901, 1.9485934000113048, 3.414312000008067, 2.381051500007743, 2.8988053999928525, 3.097628400006215, 3.265400699994643, 3.9487213999964297, 4.481448499995167, 3.597600399996736, 3.9992650999920443, 7.0320212000078754, 3.365163200011011, 3.015685399994254, 1.765999199997168, 2.6487905999965733, 2.831904599996051, 2.9152893999998923, 2.150060799991479, 8.614681199993356, 3.215233700000681, 0.9324563999980455, 5.950248900000588, 4.215808900000411, 6.3647925999976, 7.048197600001004, 7.398991800000658]",552415,001,2022-11-10_22h47.58.612,T7,2022.2.4,59.9800146553187,
0.4,1000,exp,2,8,32,10,219.20909090001078,220.20917100000952,220.20917100000952,220.20917100000952,space,0.7432777999783866,221.37575503000988,,221.67589070000395,221.67589070000395,221.67589070000395,456,33,"[2.2740491000004113, 2.4660926000069594, 4.548173000002862, 7.7325188999966485, 2.74882140000409, 3.749088699987624, 1.9485854000085965, 3.414302899996983, 2.3810407999990275, 2.8987961999955587, 3.0976198999996996, 3.265393599998788, 3.9487100999976974, 4.481439399998635, 3.597594699996989, 3.999254199996358, 7.032008900001529, 3.365154099999927, 3.015676099996199, 1.7659911000082502, 2.648781500000041, 2.8318977000017185, 2.9152808000071673, 2.1500518999964697, 8.614664799999446, 3.215225799998734, 0.9324475000030361, 5.95023640000727, 4.215799200013862, 6.364784699995653, 7.0481881000014255, 7.398983599996427, 5.04885400000785]","[2.2740601999976207, 2.4661017000034917, 4.548183399994741, 7.73252639999555, 2.748834900005022, 3.749097299994901, 1.9485934000113048, 3.414312000008067, 2.381051500007743, 2.8988053999928525, 3.097628400006215, 3.265400699994643, 3.9487213999964297, 4.481448499995167, 3.597600399996736, 3.9992650999920443, 7.0320212000078754, 3.365163200011011, 3.015685399994254, 1.765999199997168, 2.6487905999965733, 2.831904599996051, 2.9152893999998923, 2.150060799991479, 8.614681199993356, 3.215233700000681, 0.9324563999980455, 5.950248900000588, 4.215808900000411, 6.3647925999976, 7.048197600001004, 7.398991800000658, 5.048862600000575]",552415,001,2022-11-10_22h47.58.612,T7,2022.2.4,59.9800146553187,
0.7,1000,exp,2,9,33,8,226.7255625000107,227.72573810000904,227.72573810000904,227.72573810000904,space,0.7203632999880938,229.17554563000448,229.47581290001108,229.47581290001108,229.47581290001108,229.47581290001108,670,34,"[2.2740491000004113, 2.4660926000069594, 4.548173000002862, 7.7325188999966485, 2.74882140000409, 3.749088699987624, 1.9485854000085965, 3.414302899996983, 2.3810407999990275, 2.8987961999955587, 3.0976198999996996, 3.265393599998788, 3.9487100999976974, 4.481439399998635, 3.597594699996989, 3.999254199996358, 7.032008900001529, 3.365154099999927, 3.015676099996199, 1.7659911000082502, 2.648781500000041, 2.8318977000017185, 2.9152808000071673, 2.1500518999964697, 8.614664799999446, 3.215225799998734, 0.9324475000030361, 5.95023640000727, 4.215799200013862, 6.364784699995653, 7.0481881000014255, 7.398983599996427, 5.04885400000785, 2.7484919000125956]","[2.2740601999976207, 2.4661017000034917, 4.548183399994741, 7.73252639999555, 2.748834900005022, 3.749097299994901, 1.9485934000113048, 3.414312000008067, 2.381051500007743, 2.8988053999928525, 3.097628400006215, 3.265400699994643, 3.9487213999964297, 4.481448499995167, 3.597600399996736, 3.9992650999920443, 7.0320212000078754, 3.365163200011011, 3.015685399994254, 1.765999199997168, 2.6487905999965733, 2.831904599996051, 2.9152893999998923, 2.150060799991479, 8.614681199993356, 3.215233700000681, 0.9324563999980455, 5.950248900000588, 4.215808900000411, 6.3647925999976, 7.048197600001004, 7.398991800000658, 5.048862600000575, 2.7485005000053206]",552415,001,2022-11-10_22h47.58.612,T7,2022.2.4,59.9800146553187,
0.1,400,unexp,2,10,34,0,232.22562590001326,233.22548810001172,233.22548810001172,233.22548810001172,space,1.2975765999872237,234.6421825300087,234.94208950000757,234.94208950000757,234.94208950000757,234.94208950000757,200,35,"[2.2740491000004113, 2.4660926000069594, 4.548173000002862, 7.7325188999966485, 2.74882140000409, 3.749088699987624, 1.9485854000085965, 3.414302899996983, 2.3810407999990275, 2.8987961999955587, 3.0976198999996996, 3.265393599998788, 3.9487100999976974, 4.481439399998635, 3.597594699996989, 3.999254199996358, 7.032008900001529, 3.365154099999927, 3.015676099996199, 1.7659911000082502, 2.648781500000041, 2.8318977000017185, 2.9152808000071673, 2.1500518999964697, 8.614664799999446, 3.215225799998734, 0.9324475000030361, 5.95023640000727, 4.215799200013862, 6.364784699995653, 7.0481881000014255, 7.398983599996427, 5.04885400000785, 2.7484919000125956, 2.583444400006556]","[2.2740601999976207, 2.4661017000034917, 4.548183399994741, 7.73252639999555, 2.748834900005022, 3.749097299994901, 1.9485934000113048, 3.414312000008067, 2.381051500007743, 2.8988053999928525, 3.097628400006215, 3.265400699994643, 3.9487213999964297, 4.481448499995167, 3.597600399996736, 3.9992650999920443, 7.0320212000078754, 3.365163200011011, 3.015685399994254, 1.765999199997168, 2.6487905999965733, 2.831904599996051, 2.9152893999998923, 2.150060799991479, 8.614681199993356, 3.215233700000681, 0.9324563999980455, 5.950248900000588, 4.215808900000411, 6.3647925999976, 7.048197600001004, 7.398991800000658, 5.048862600000575, 2.7485005000053206, 2.5834545999969123]",552415,001,2022-11-10_22h47.58.612,T7,2022.2.4,59.9800146553187,
0.7,400,unexp,2,11,35,2,237.52530930000648,238.52544599999965,238.52544599999965,238.52544599999965,space,2.3180988999811234,241.57543983000795,,241.87512890000653,241.87512890000653,241.87512890000653,230,36,"[2.2740491000004113, 2.4660926000069594, 4.548173000002862, 7.7325188999966485, 2.74882140000409, 3.749088699987624, 1.9485854000085965, 3.414302899996983, 2.3810407999990275, 2.8987961999955587, 3.0976198999996996, 3.265393599998788, 3.9487100999976974, 4.481439399998635, 3.597594699996989, 3.999254199996358, 7.032008900001529, 3.365154099999927, 3.015676099996199, 1.7659911000082502, 2.648781500000041, 2.8318977000017185, 2.9152808000071673, 2.1500518999964697, 8.614664799999446, 3.215225799998734, 0.9324475000030361, 5.95023640000727, 4.215799200013862, 6.364784699995653, 7.0481881000014255, 7.398983599996427, 5.04885400000785, 2.7484919000125956, 2.583444400006556, 4.283461300001363]","[2.2740601999976207, 2.4661017000034917, 4.548183399994741, 7.73252639999555, 2.748834900005022, 3.749097299994901, 1.9485934000113048, 3.414312000008067, 2.381051500007743, 2.8988053999928525, 3.097628400006215, 3.265400699994643, 3.9487213999964297, 4.481448499995167, 3.597600399996736, 3.9992650999920443, 7.0320212000078754, 3.365163200011011, 3.015685399994254, 1.765999199997168, 2.6487905999965733, 2.831904599996051, 2.9152893999998923, 2.150060799991479, 8.614681199993356, 3.215233700000681, 0.9324563999980455, 5.950248900000588, 4.215808900000411, 6.3647925999976, 7.048197600001004, 7.398991800000658, 5.048862600000575, 2.7485005000053206, 2.5834545999969123, 4.28347439999925]",552415,001,2022-11-10_22h47.58.612,T7,2022.2.4,59.9800146553187,
0.7,1000,exp,3,0,36,5,246.15855390000797,247.1582982000109,247.1582982000109,247.1582982000109,space,0.36871009998139925,248.25839413001376,,248.55856300001324,248.55856300001324,248.55856300001324,360,37,"[2.2740491000004113, 2.4660926000069594, 4.548173000002862, 7.7325188999966485, 2.74882140000409, 3.749088699987624, 1.9485854000085965, 3.414302899996983, 2.3810407999990275, 2.8987961999955587, 3.0976198999996996, 3.265393599998788, 3.9487100999976974, 4.481439399998635, 3.597594699996989, 3.999254199996358, 7.032008900001529, 3.365154099999927, 3.015676099996199, 1.7659911000082502, 2.648781500000041, 2.8318977000017185, 2.9152808000071673, 2.1500518999964697, 8.614664799999446, 3.215225799998734, 0.9324475000030361, 5.95023640000727, 4.215799200013862, 6.364784699995653, 7.0481881000014255, 7.398983599996427, 5.04885400000785, 2.7484919000125956, 2.583444400006556, 4.283461300001363, 5.06425749999471]","[2.2740601999976207, 2.4661017000034917, 4.548183399994741, 7.73252639999555, 2.748834900005022, 3.749097299994901, 1.9485934000113048, 3.414312000008067, 2.381051500007743, 2.8988053999928525, 3.097628400006215, 3.265400699994643, 3.9487213999964297, 4.481448499995167, 3.597600399996736, 3.9992650999920443, 7.0320212000078754, 3.365163200011011, 3.015685399994254, 1.765999199997168, 2.6487905999965733, 2.831904599996051, 2.9152893999998923, 2.150060799991479, 8.614681199993356, 3.215233700000681, 0.9324563999980455, 5.950248900000588, 4.215808900000411, 6.3647925999976, 7.048197600001004, 7.398991800000658, 5.048862600000575, 2.7485005000053206, 2.5834545999969123, 4.28347439999925, 5.064264699991327]",552415,001,2022-11-10_22h47.58.612,T7,2022.2.4,59.9800146553187,
0.4,400,unexp,3,1,37,1,253.62508140000864,254.62510699999984,254.62510699999984,254.62510699999984,space,0.4525260999944294,255.50818972999986,,255.80827050001244,255.80827050001244,255.80827050001244,257,38,"[2.2740491000004113, 2.4660926000069594, 4.548173000002862, 7.7325188999966485, 2.74882140000409, 3.749088699987624, 1.9485854000085965, 3.414302899996983, 2.3810407999990275, 2.8987961999955587, 3.0976198999996996, 3.265393599998788, 3.9487100999976974, 4.481439399998635, 3.597594699996989, 3.999254199996358, 7.032008900001529, 3.365154099999927, 3.015676099996199, 1.7659911000082502, 2.648781500000041, 2.8318977000017185, 2.9152808000071673, 2.1500518999964697, 8.614664799999446, 3.215225799998734, 0.9324475000030361, 5.95023640000727, 4.215799200013862, 6.364784699995653, 7.0481881000014255, 7.398983599996427, 5.04885400000785, 2.7484919000125956, 2.583444400006556, 4.283461300001363, 5.06425749999471, 4.8981227000040235]","[2.2740601999976207, 2.4661017000034917, 4.548183399994741, 7.73252639999555, 2.748834900005022, 3.749097299994901, 1.9485934000113048, 3.414312000008067, 2.381051500007743, 2.8988053999928525, 3.097628400006215, 3.265400699994643, 3.9487213999964297, 4.481448499995167, 3.597600399996736, 3.9992650999920443, 7.0320212000078754, 3.365163200011011, 3.015685399994254, 1.765999199997168, 2.6487905999965733, 2.831904599996051, 2.9152893999998923, 2.150060799991479, 8.614681199993356, 3.215233700000681, 0.9324563999980455, 5.950248900000588, 4.215808900000411, 6.3647925999976, 7.048197600001004, 7.398991800000658, 5.048862600000575, 2.7485005000053206, 2.5834545999969123, 4.28347439999925, 5.064264699991327, 4.898134200004279]",552415,001,2022-11-10_22h47.58.612,T7,2022.2.4,59.9800146553187,
0.7,1000,exp,3,2,38,11,260.70838140000706,261.70831140001246,261.70831140001246,261.70831140001246,space,0.4823751999938395,262.90808003000274,,263.20819240000856,263.20819240000856,263.20819240000856,487,39,"[2.2740491000004113, 2.4660926000069594, 4.548173000002862, 7.7325188999966485, 2.74882140000409, 3.749088699987624, 1.9485854000085965, 3.414302899996983, 2.3810407999990275, 2.8987961999955587, 3.0976198999996996, 3.265393599998788, 3.9487100999976974, 4.481439399998635, 3.597594699996989, 3.999254199996358, 7.032008900001529, 3.365154099999927, 3.015676099996199, 1.7659911000082502, 2.648781500000041, 2.8318977000017185, 2.9152808000071673, 2.1500518999964697, 8.614664799999446, 3.215225799998734, 0.9324475000030361, 5.95023640000727, 4.215799200013862, 6.364784699995653, 7.0481881000014255, 7.398983599996427, 5.04885400000785, 2.7484919000125956, 2.583444400006556, 4.283461300001363, 5.06425749999471, 4.8981227000040235, 4.298632000005455]","[2.2740601999976207, 2.4661017000034917, 4.548183399994741, 7.73252639999555, 2.748834900005022, 3.749097299994901, 1.9485934000113048, 3.414312000008067, 2.381051500007743, 2.8988053999928525, 3.097628400006215, 3.265400699994643, 3.9487213999964297, 4.481448499995167, 3.597600399996736, 3.9992650999920443, 7.0320212000078754, 3.365163200011011, 3.015685399994254, 1.765999199997168, 2.6487905999965733, 2.831904599996051, 2.9152893999998923, 2.150060799991479, 8.614681199993356, 3.215233700000681, 0.9324563999980455, 5.950248900000588, 4.215808900000411, 6.3647925999976, 7.048197600001004, 7.398991800000658, 5.048862600000575, 2.7485005000053206, 2.5834545999969123, 4.28347439999925, 5.064264699991327, 4.898134200004279, 4.298641500005033]",552415,001,2022-11-10_22h47.58.612,T7,2022.2.4,59.9800146553187,
0.4,1000,exp,3,3,39,4,267.5081732000108,268.50832850000006,268.50832850000006,268.50832850000006,space,0.3171583999937866,269.24166893000364,269.5410894000088,269.5410894000088,269.5410894000088,269.5410894000088,600,40,"[2.2740491000004113, 2.4660926000069594, 4.548173000002862, 7.7325188999966485, 2.74882140000409, 3.749088699987624, 1.9485854000085965, 3.414302899996983, 2.3810407999990275, 2.8987961999955587, 3.0976198999996996, 3.265393599998788, 3.9487100999976974, 4.481439399998635, 3.597594699996989, 3.999254199996358, 7.032008900001529, 3.365154099999927, 3.015676099996199, 1.7659911000082502, 2.648781500000041, 2.8318977000017185, 2.9152808000071673, 2.1500518999964697, 8.614664799999446, 3.215225799998734, 0.9324475000030361, 5.95023640000727, 4.215799200013862, 6.364784699995653, 7.0481881000014255, 7.398983599996427, 5.04885400000785, 2.7484919000125956, 2.583444400006556, 4.283461300001363, 5.06425749999471, 4.8981227000040235, 4.298632000005455, 2.3664191999996547]","[2.2740601999976207, 2.4661017000034917, 4.548183399994741, 7.73252639999555, 2.748834900005022, 3.749097299994901, 1.9485934000113048, 3.414312000008067, 2.381051500007743, 2.8988053999928525, 3.097628400006215, 3.265400699994643, 3.9487213999964297, 4.481448499995167, 3.597600399996736, 3.9992650999920443, 7.0320212000078754, 3.365163200011011, 3.015685399994254, 1.765999199997168, 2.6487905999965733, 2.831904599996051, 2.9152893999998923, 2.150060799991479, 8.614681199993356, 3.215233700000681, 0.9324563999980455, 5.950248900000588, 4.215808900000411, 6.3647925999976, 7.048197600001004, 7.398991800000658, 5.048862600000575, 2.7485005000053206, 2.5834545999969123, 4.28347439999925, 5.064264699991327, 4.898134200004279, 4.298641500005033, 2.366427399989334]",552415,001,2022-11-10_22h47.58.612,T7,2022.2.4,59.9800146553187,
0.1,400,unexp,3,4,40,0,271.908222500002,272.9080762000085,272.9080762000085,272.9080762000085,space,0.6415329999872483,273.6746986300015,,273.9746135000023,273.9746135000023,273.9746135000023,260,41,"[2.2740491000004113, 2.4660926000069594, 4.548173000002862, 7.7325188999966485, 2.74882140000409, 3.749088699987624, 1.9485854000085965, 3.414302899996983, 2.3810407999990275, 2.8987961999955587, 3.0976198999996996, 3.265393599998788, 3.9487100999976974, 4.481439399998635, 3.597594699996989, 3.999254199996358, 7.032008900001529, 3.365154099999927, 3.015676099996199, 1.7659911000082502, 2.648781500000041, 2.8318977000017185, 2.9152808000071673, 2.1500518999964697, 8.614664799999446, 3.215225799998734, 0.9324475000030361, 5.95023640000727, 4.215799200013862, 6.364784699995653, 7.0481881000014255, 7.398983599996427, 5.04885400000785, 2.7484919000125956, 2.583444400006556, 4.283461300001363, 5.06425749999471, 4.8981227000040235, 4.298632000005455, 2.3664191999996547, 2.9163875999947777]","[2.2740601999976207, 2.4661017000034917, 4.548183399994741, 7.73252639999555, 2.748834900005022, 3.749097299994901, 1.9485934000113048, 3.414312000008067, 2.381051500007743, 2.8988053999928525, 3.097628400006215, 3.265400699994643, 3.9487213999964297, 4.481448499995167, 3.597600399996736, 3.9992650999920443, 7.0320212000078754, 3.365163200011011, 3.015685399994254, 1.765999199997168, 2.6487905999965733, 2.831904599996051, 2.9152893999998923, 2.150060799991479, 8.614681199993356, 3.215233700000681, 0.9324563999980455, 5.950248900000588, 4.215808900000411, 6.3647925999976, 7.048197600001004, 7.398991800000658, 5.048862600000575, 2.7485005000053206, 2.5834545999969123, 4.28347439999925, 5.064264699991327, 4.898134200004279, 4.298641500005033, 2.366427399989334, 2.9164003000041703]",552415,001,2022-11-10_22h47.58.612,T7,2022.2.4,59.9800146553187,
0.7,1000,exp,3,5,41,8,276.891028500002,277.8910862000048,277.8910862000048,277.8910862000048,space,0.7009335999755422,279.324604430006,,279.6245445000095,279.6245445000095,279.6245445000095,360,42,"[2.2740491000004113, 2.4660926000069594, 4.548173000002862, 7.7325188999966485, 2.74882140000409, 3.749088699987624, 1.9485854000085965, 3.414302899996983, 2.3810407999990275, 2.8987961999955587, 3.0976198999996996, 3.265393599998788, 3.9487100999976974, 4.481439399998635, 3.597594699996989, 3.999254199996358, 7.032008900001529, 3.365154099999927, 3.015676099996199, 1.7659911000082502, 2.648781500000041, 2.8318977000017185, 2.9152808000071673, 2.1500518999964697, 8.614664799999446, 3.215225799998734, 0.9324475000030361, 5.95023640000727, 4.215799200013862, 6.364784699995653, 7.0481881000014255, 7.398983599996427, 5.04885400000785, 2.7484919000125956, 2.583444400006556, 4.283461300001363, 5.06425749999471, 4.8981227000040235, 4.298632000005455, 2.3664191999996547, 2.9163875999947777, 2.3318785000010394]","[2.2740601999976207, 2.4661017000034917, 4.548183399994741, 7.73252639999555, 2.748834900005022, 3.749097299994901, 1.9485934000113048, 3.414312000008067, 2.381051500007743, 2.8988053999928525, 3.097628400006215, 3.265400699994643, 3.9487213999964297, 4.481448499995167, 3.597600399996736, 3.9992650999920443, 7.0320212000078754, 3.365163200011011, 3.015685399994254, 1.765999199997168, 2.6487905999965733, 2.831904599996051, 2.9152893999998923, 2.150060799991479, 8.614681199993356, 3.215233700000681, 0.9324563999980455, 5.950248900000588, 4.215808900000411, 6.3647925999976, 7.048197600001004, 7.398991800000658, 5.048862600000575, 2.7485005000053206, 2.5834545999969123, 4.28347439999925, 5.064264699991327, 4.898134200004279, 4.298641500005033, 2.366427399989334, 2.9164003000041703, 2.331883499995456]",552415,001,2022-11-10_22h47.58.612,T7,2022.2.4,59.9800146553187,
0.1,1000,exp,3,6,42,9,281.95772060001036,282.9580137000012,282.9580137000012,282.9580137000012,space,0.5811002999835182,283.6576396300108,283.957768200009,283.957768200009,283.957768200009,283.957768200009,630,43,"[2.2740491000004113, 2.4660926000069594, 4.548173000002862, 7.7325188999966485, 2.74882140000409, 3.749088699987624, 1.9485854000085965, 3.414302899996983, 2.3810407999990275, 2.8987961999955587, 3.0976198999996996, 3.265393599998788, 3.9487100999976974, 4.481439399998635, 3.597594699996989, 3.999254199996358, 7.032008900001529, 3.365154099999927, 3.015676099996199, 1.7659911000082502, 2.648781500000041, 2.8318977000017185, 2.9152808000071673, 2.1500518999964697, 8.614664799999446, 3.215225799998734, 0.9324475000030361, 5.95023640000727, 4.215799200013862, 6.364784699995653, 7.0481881000014255, 7.398983599996427, 5.04885400000785, 2.7484919000125956, 2.583444400006556, 4.283461300001363, 5.06425749999471, 4.8981227000040235, 4.298632000005455, 2.3664191999996547, 2.9163875999947777, 2.3318785000010394, 2.9318558999948436]","[2.2740601999976207, 2.4661017000034917, 4.548183399994741, 7.73252639999555, 2.748834900005022, 3.749097299994901, 1.9485934000113048, 3.414312000008067, 2.381051500007743, 2.8988053999928525, 3.097628400006215, 3.265400699994643, 3.9487213999964297, 4.481448499995167, 3.597600399996736, 3.9992650999920443, 7.0320212000078754, 3.365163200011011, 3.015685399994254, 1.765999199997168, 2.6487905999965733, 2.831904599996051, 2.9152893999998923, 2.150060799991479, 8.614681199993356, 3.215233700000681, 0.9324563999980455, 5.950248900000588, 4.215808900000411, 6.3647925999976, 7.048197600001004, 7.398991800000658, 5.048862600000575, 2.7485005000053206, 2.5834545999969123, 4.28347439999925, 5.064264699991327, 4.898134200004279, 4.298641500005033, 2.366427399989334, 2.9164003000041703, 2.331883499995456, 2.9318641999998363]",552415,001,2022-11-10_22h47.58.612,T7,2022.2.4,59.9800146553187,
0.1,1000,exp,3,7,43,3,286.89095110000926,287.89081830000214,287.89081830000214,287.89081830000214,space,0.3713002000004053,288.391035130003,,288.691046500011,288.691046500011,288.691046500011,692,44,"[2.2740491000004113, 2.4660926000069594, 4.548173000002862, 7.7325188999966485, 2.74882140000409, 3.749088699987624, 1.9485854000085965, 3.414302899996983, 2.3810407999990275, 2.8987961999955587, 3.0976198999996996, 3.265393599998788, 3.9487100999976974, 4.481439399998635, 3.597594699996989, 3.999254199996358, 7.032008900001529, 3.365154099999927, 3.015676099996199, 1.7659911000082502, 2.648781500000041, 2.8318977000017185, 2.9152808000071673, 2.1500518999964697, 8.614664799999446, 3.215225799998734, 0.9324475000030361, 5.95023640000727, 4.215799200013862, 6.364784699995653, 7.0481881000014255, 7.398983599996427, 5.04885400000785, 2.7484919000125956, 2.583444400006556, 4.283461300001363, 5.06425749999471, 4.8981227000040235, 4.298632000005455, 2.3664191999996547, 2.9163875999947777, 2.3318785000010394, 2.9318558999948436, 3.1654191999987233]","[2.2740601999976207, 2.4661017000034917, 4.548183399994741, 7.73252639999555, 2.748834900005022, 3.749097299994901, 1.9485934000113048, 3.414312000008067, 2.381051500007743, 2.8988053999928525, 3.097628400006215, 3.265400699994643, 3.9487213999964297, 4.481448499995167, 3.597600399996736, 3.9992650999920443, 7.0320212000078754, 3.365163200011011, 3.015685399994254, 1.765999199997168, 2.6487905999965733, 2.831904599996051, 2.9152893999998923, 2.150060799991479, 8.614681199993356, 3.215233700000681, 0.9324563999980455, 5.950248900000588, 4.215808900000411, 6.3647925999976, 7.048197600001004, 7.398991800000658, 5.048862600000575, 2.7485005000053206, 2.5834545999969123, 4.28347439999925, 5.064264699991327, 4.898134200004279, 4.298641500005033, 2.366427399989334, 2.9164003000041703, 2.331883499995456, 2.9318641999998363, 3.165429700005916]",552415,001,2022-11-10_22h47.58.612,T7,2022.2.4,59.9800146553187,
0.7,400,unexp,3,8,44,2,291.8574907000002,292.85775380000996,292.85775380000996,292.85775380000996,space,0.6813475999952061,294.257321130007,,294.5574302000023,294.5574302000023,294.5574302000023,200,45,"[2.2740491000004113, 2.4660926000069594, 4.548173000002862, 7.7325188999966485, 2.74882140000409, 3.749088699987624, 1.9485854000085965, 3.414302899996983, 2.3810407999990275, 2.8987961999955587, 3.0976198999996996, 3.265393599998788, 3.9487100999976974, 4.481439399998635, 3.597594699996989, 3.999254199996358, 7.032008900001529, 3.365154099999927, 3.015676099996199, 1.7659911000082502, 2.648781500000041, 2.8318977000017185, 2.9152808000071673, 2.1500518999964697, 8.614664799999446, 3.215225799998734, 0.9324475000030361, 5.95023640000727, 4.215799200013862, 6.364784699995653, 7.0481881000014255, 7.398983599996427, 5.04885400000785, 2.7484919000125956, 2.583444400006556, 4.283461300001363, 5.06425749999471, 4.8981227000040235, 4.298632000005455, 2.3664191999996547, 2.9163875999947777, 2.3318785000010394, 2.9318558999948436, 3.1654191999987233, 3.2981756999943173]","[2.2740601999976207, 2.4661017000034917, 4.548183399994741, 7.73252639999555, 2.748834900005022, 3.749097299994901, 1.9485934000113048, 3.414312000008067, 2.381051500007743, 2.8988053999928525, 3.097628400006215, 3.265400699994643, 3.9487213999964297, 4.481448499995167, 3.597600399996736, 3.9992650999920443, 7.0320212000078754, 3.365163200011011, 3.015685399994254, 1.765999199997168, 2.6487905999965733, 2.831904599996051, 2.9152893999998923, 2.150060799991479, 8.614681199993356, 3.215233700000681, 0.9324563999980455, 5.950248900000588, 4.215808900000411, 6.3647925999976, 7.048197600001004, 7.398991800000658, 5.048862600000575, 2.7485005000053206, 2.5834545999969123, 4.28347439999925, 5.064264699991327, 4.898134200004279, 4.298641500005033, 2.366427399989334, 2.9164003000041703, 2.331883499995456, 2.9318641999998363, 3.165429700005916, 3.298184499988565]",552415,001,2022-11-10_22h47.58.612,T7,2022.2.4,59.9800146553187,
0.4,1000,exp,3,9,45,7,297.8574918000086,298.8576870000106,298.8576870000106,298.8576870000106,space,0.8896102999860886,300.17495013001025,,300.47463140000764,300.47463140000764,300.47463140000764,560,46,"[2.2740491000004113, 2.4660926000069594, 4.548173000002862, 7.7325188999966485, 2.74882140000409, 3.749088699987624, 1.9485854000085965, 3.414302899996983, 2.3810407999990275, 2.8987961999955587, 3.0976198999996996, 3.265393599998788, 3.9487100999976974, 4.481439399998635, 3.597594699996989, 3.999254199996358, 7.032008900001529, 3.365154099999927, 3.015676099996199, 1.7659911000082502, 2.648781500000041, 2.8318977000017185, 2.9152808000071673, 2.1500518999964697, 8.614664799999446, 3.215225799998734, 0.9324475000030361, 5.95023640000727, 4.215799200013862, 6.364784699995653, 7.0481881000014255, 7.398983599996427, 5.04885400000785, 2.7484919000125956, 2.583444400006556, 4.283461300001363, 5.06425749999471, 4.8981227000040235, 4.298632000005455, 2.3664191999996547, 2.9163875999947777, 2.3318785000010394, 2.9318558999948436, 3.1654191999987233, 3.2981756999943173, 2.4323315999936312]","[2.2740601999976207, 2.4661017000034917, 4.548183399994741, 7.73252639999555, 2.748834900005022, 3.749097299994901, 1.9485934000113048, 3.414312000008067, 2.381051500007743, 2.8988053999928525, 3.097628400006215, 3.265400699994643, 3.9487213999964297, 4.481448499995167, 3.597600399996736, 3.9992650999920443, 7.0320212000078754, 3.365163200011011, 3.015685399994254, 1.765999199997168, 2.6487905999965733, 2.831904599996051, 2.9152893999998923, 2.150060799991479, 8.614681199993356, 3.215233700000681, 0.9324563999980455, 5.950248900000588, 4.215808900000411, 6.3647925999976, 7.048197600001004, 7.398991800000658, 5.048862600000575, 2.7485005000053206, 2.5834545999969123, 4.28347439999925, 5.064264699991327, 4.898134200004279, 4.298641500005033, 2.366427399989334, 2.9164003000041703, 2.331883499995456, 2.9318641999998363, 3.165429700005916, 3.298184499988565, 2.432340600003954]",552415,001,2022-11-10_22h47.58.612,T7,2022.2.4,59.9800146553187,
0.4,1000,exp,3,10,46,10,302.90733340001316,303.9076141000114,303.9076141000114,303.9076141000114,space,0.687084799981676,305.0241294300096,,305.32387870000093,305.32387870000093,305.32387870000093,520,47,"[2.2740491000004113, 2.4660926000069594, 4.548173000002862, 7.7325188999966485, 2.74882140000409, 3.749088699987624, 1.9485854000085965, 3.414302899996983, 2.3810407999990275, 2.8987961999955587, 3.0976198999996996, 3.265393599998788, 3.9487100999976974, 4.481439399998635, 3.597594699996989, 3.999254199996358, 7.032008900001529, 3.365154099999927, 3.015676099996199, 1.7659911000082502, 2.648781500000041, 2.8318977000017185, 2.9152808000071673, 2.1500518999964697, 8.614664799999446, 3.215225799998734, 0.9324475000030361, 5.95023640000727, 4.215799200013862, 6.364784699995653, 7.0481881000014255, 7.398983599996427, 5.04885400000785, 2.7484919000125956, 2.583444400006556, 4.283461300001363, 5.06425749999471, 4.8981227000040235, 4.298632000005455, 2.3664191999996547, 2.9163875999947777, 2.3318785000010394, 2.9318558999948436, 3.1654191999987233, 3.2981756999943173, 2.4323315999936312, 2.298996299999999]","[2.2740601999976207, 2.4661017000034917, 4.548183399994741, 7.73252639999555, 2.748834900005022, 3.749097299994901, 1.9485934000113048, 3.414312000008067, 2.381051500007743, 2.8988053999928525, 3.097628400006215, 3.265400699994643, 3.9487213999964297, 4.481448499995167, 3.597600399996736, 3.9992650999920443, 7.0320212000078754, 3.365163200011011, 3.015685399994254, 1.765999199997168, 2.6487905999965733, 2.831904599996051, 2.9152893999998923, 2.150060799991479, 8.614681199993356, 3.215233700000681, 0.9324563999980455, 5.950248900000588, 4.215808900000411, 6.3647925999976, 7.048197600001004, 7.398991800000658, 5.048862600000575, 2.7485005000053206, 2.5834545999969123, 4.28347439999925, 5.064264699991327, 4.898134200004279, 4.298641500005033, 2.366427399989334, 2.9164003000041703, 2.331883499995456, 2.9318641999998363, 3.165429700005916, 3.298184499988565, 2.432340600003954, 2.299006200002623]",552415,001,2022-11-10_22h47.58.612,T7,2022.2.4,59.9800146553187,
0.1,1000,exp,3,11,47,6,307.62412640001276,308.62447090000205,308.62447090000205,308.62447090000205,space,0.041061099982471205,308.79114523000607,,309.09053530001256,309.09053530001256,309.09053530001256,374,48,"[2.2740491000004113, 2.4660926000069594, 4.548173000002862, 7.7325188999966485, 2.74882140000409, 3.749088699987624, 1.9485854000085965, 3.414302899996983, 2.3810407999990275, 2.8987961999955587, 3.0976198999996996, 3.265393599998788, 3.9487100999976974, 4.481439399998635, 3.597594699996989, 3.999254199996358, 7.032008900001529, 3.365154099999927, 3.015676099996199, 1.7659911000082502, 2.648781500000041, 2.8318977000017185, 2.9152808000071673, 2.1500518999964697, 8.614664799999446, 3.215225799998734, 0.9324475000030361, 5.95023640000727, 4.215799200013862, 6.364784699995653, 7.0481881000014255, 7.398983599996427, 5.04885400000785, 2.7484919000125956, 2.583444400006556, 4.283461300001363, 5.06425749999471, 4.8981227000040235, 4.298632000005455, 2.3664191999996547, 2.9163875999947777, 2.3318785000010394, 2.9318558999948436, 3.1654191999987233, 3.2981756999943173, 2.4323315999936312, 2.298996299999999, 4.663804600000731]","[2.2740601999976207, 2.4661017000034917, 4.548183399994741, 7.73252639999555, 2.748834900005022, 3.749097299994901, 1.9485934000113048, 3.414312000008067, 2.381051500007743, 2.8988053999928525, 3.097628400006215, 3.265400699994643, 3.9487213999964297, 4.481448499995167, 3.597600399996736, 3.9992650999920443, 7.0320212000078754, 3.365163200011011, 3.015685399994254, 1.765999199997168, 2.6487905999965733, 2.831904599996051, 2.9152893999998923, 2.150060799991479, 8.614681199993356, 3.215233700000681, 0.9324563999980455, 5.950248900000588, 4.215808900000411, 6.3647925999976, 7.048197600001004, 7.398991800000658, 5.048862600000575, 2.7485005000053206, 2.5834545999969123, 4.28347439999925, 5.064264699991327, 4.898134200004279, 4.298641500005033, 2.366427399989334, 2.9164003000041703, 2.331883499995456, 2.9318641999998363, 3.165429700005916, 3.298184499988565, 2.432340600003954, 2.299006200002623, 4.663816100000986]",552415,001,2022-11-10_22h47.58.612,T7,2022.2.4,59.9800146553187,
0.4,1000,exp,4,0,48,7,313.7571500000049,314.7573793000047,314.7573793000047,314.7573793000047,space,0.9413466999831144,316.1237599300104,,316.42426080000587,316.42426080000587,316.42426080000587,290,49,"[2.2740491000004113, 2.4660926000069594, 4.548173000002862, 7.7325188999966485, 2.74882140000409, 3.749088699987624, 1.9485854000085965, 3.414302899996983, 2.3810407999990275, 2.8987961999955587, 3.0976198999996996, 3.265393599998788, 3.9487100999976974, 4.481439399998635, 3.597594699996989, 3.999254199996358, 7.032008900001529, 3.365154099999927, 3.015676099996199, 1.7659911000082502, 2.648781500000041, 2.8318977000017185, 2.9152808000071673, 2.1500518999964697, 8.614664799999446, 3.215225799998734, 0.9324475000030361, 5.95023640000727, 4.215799200013862, 6.364784699995653, 7.0481881000014255, 7.398983599996427, 5.04885400000785, 2.7484919000125956, 2.583444400006556, 4.283461300001363, 5.06425749999471, 4.8981227000040235, 4.298632000005455, 2.3664191999996547, 2.9163875999947777, 2.3318785000010394, 2.9318558999948436, 3.1654191999987233, 3.2981756999943173, 2.4323315999936312, 2.298996299999999, 4.663804600000731, 3.815782700010459]","[2.2740601999976207, 2.4661017000034917, 4.548183399994741, 7.73252639999555, 2.748834900005022, 3.749097299994901, 1.9485934000113048, 3.414312000008067, 2.381051500007743, 2.8988053999928525, 3.097628400006215, 3.265400699994643, 3.9487213999964297, 4.481448499995167, 3.597600399996736, 3.9992650999920443, 7.0320212000078754, 3.365163200011011, 3.015685399994254, 1.765999199997168, 2.6487905999965733, 2.831904599996051, 2.9152893999998923, 2.150060799991479, 8.614681199993356, 3.215233700000681, 0.9324563999980455, 5.950248900000588, 4.215808900000411, 6.3647925999976, 7.048197600001004, 7.398991800000658, 5.048862600000575, 2.7485005000053206, 2.5834545999969123, 4.28347439999925, 5.064264699991327, 4.898134200004279, 4.298641500005033, 2.366427399989334, 2.9164003000041703, 2.331883499995456, 2.9318641999998363, 3.165429700005916, 3.298184499988565, 2.432340600003954, 2.299006200002623, 4.663816100000986, 3.815794200010714]",552415,001,2022-11-10_22h47.58.612,T7,2022.2.4,59.9800146553187,
0.1,1000,exp,4,1,49,3,320.2401161000016,321.2400514000037,321.2400514000037,321.2400514000037,space,0.6007818999933079,321.95684643001294,322.25783450000745,322.25783450000745,322.25783450000745,322.25783450000745,290,50,"[2.2740491000004113, 2.4660926000069594, 4.548173000002862, 7.7325188999966485, 2.74882140000409, 3.749088699987624, 1.9485854000085965, 3.414302899996983, 2.3810407999990275, 2.8987961999955587, 3.0976198999996996, 3.265393599998788, 3.9487100999976974, 4.481439399998635, 3.597594699996989, 3.999254199996358, 7.032008900001529, 3.365154099999927, 3.015676099996199, 1.7659911000082502, 2.648781500000041, 2.8318977000017185, 2.9152808000071673, 2.1500518999964697, 8.614664799999446, 3.215225799998734, 0.9324475000030361, 5.95023640000727, 4.215799200013862, 6.364784699995653, 7.0481881000014255, 7.398983599996427, 5.04885400000785, 2.7484919000125956, 2.583444400006556, 4.283461300001363, 5.06425749999471, 4.8981227000040235, 4.298632000005455, 2.3664191999996547, 2.9163875999947777, 2.3318785000010394, 2.9318558999948436, 3.1654191999987233, 3.2981756999943173, 2.4323315999936312, 2.298996299999999, 4.663804600000731, 3.815782700010459, 3.898844299998018]","[2.2740601999976207, 2.4661017000034917, 4.548183399994741, 7.73252639999555, 2.748834900005022, 3.749097299994901, 1.9485934000113048, 3.414312000008067, 2.381051500007743, 2.8988053999928525, 3.097628400006215, 3.265400699994643, 3.9487213999964297, 4.481448499995167, 3.597600399996736, 3.9992650999920443, 7.0320212000078754, 3.365163200011011, 3.015685399994254, 1.765999199997168, 2.6487905999965733, 2.831904599996051, 2.9152893999998923, 2.150060799991479, 8.614681199993356, 3.215233700000681, 0.9324563999980455, 5.950248900000588, 4.215808900000411, 6.3647925999976, 7.048197600001004, 7.398991800000658, 5.048862600000575, 2.7485005000053206, 2.5834545999969123, 4.28347439999925, 5.064264699991327, 4.898134200004279, 4.298641500005033, 2.366427399989334, 2.9164003000041703, 2.331883499995456, 2.9318641999998363, 3.165429700005916, 3.298184499988565, 2.432340600003954, 2.299006200002623, 4.663816100000986, 3.815794200010714, 3.898852900005295]",552415,001,2022-11-10_22h47.58.612,T7,2022.2.4,59.9800146553187,
0.1,1000,exp,4,2,50,9,326.1569285000005,327.1570158000104,327.1570158000104,327.1570158000104,space,4.873184499985655,332.1564839300001,332.45680870000797,332.45680870000797,332.45680870000797,332.45680870000797,400,51,"[2.2740491000004113, 2.4660926000069594, 4.548173000002862, 7.7325188999966485, 2.74882140000409, 3.749088699987624, 1.9485854000085965, 3.414302899996983, 2.3810407999990275, 2.8987961999955587, 3.0976198999996996, 3.265393599998788, 3.9487100999976974, 4.481439399998635, 3.597594699996989, 3.999254199996358, 7.032008900001529, 3.365154099999927, 3.015676099996199, 1.7659911000082502, 2.648781500000041, 2.8318977000017185, 2.9152808000071673, 2.1500518999964697, 8.614664799999446, 3.215225799998734, 0.9324475000030361, 5.95023640000727, 4.215799200013862, 6.364784699995653, 7.0481881000014255, 7.398983599996427, 5.04885400000785, 2.7484919000125956, 2.583444400006556, 4.283461300001363, 5.06425749999471, 4.8981227000040235, 4.298632000005455, 2.3664191999996547, 2.9163875999947777, 2.3318785000010394, 2.9318558999948436, 3.1654191999987233, 3.2981756999943173, 2.4323315999936312, 2.298996299999999, 4.663804600000731, 3.815782700010459, 3.898844299998018, 3.8984705000038957]","[2.2740601999976207, 2.4661017000034917, 4.548183399994741, 7.73252639999555, 2.748834900005022, 3.749097299994901, 1.9485934000113048, 3.414312000008067, 2.381051500007743, 2.8988053999928525, 3.097628400006215, 3.265400699994643, 3.9487213999964297, 4.481448499995167, 3.597600399996736, 3.9992650999920443, 7.0320212000078754, 3.365163200011011, 3.015685399994254, 1.765999199997168, 2.6487905999965733, 2.831904599996051, 2.9152893999998923, 2.150060799991479, 8.614681199993356, 3.215233700000681, 0.9324563999980455, 5.950248900000588, 4.215808900000411, 6.3647925999976, 7.048197600001004, 7.398991800000658, 5.048862600000575, 2.7485005000053206, 2.5834545999969123, 4.28347439999925, 5.064264699991327, 4.898134200004279, 4.298641500005033, 2.366427399989334, 2.9164003000041703, 2.331883499995456, 2.9318641999998363, 3.165429700005916, 3.298184499988565, 2.432340600003954, 2.299006200002623, 4.663816100000986, 3.815794200010714, 3.898852900005295, 3.8984811999980593]",552415,001,2022-11-10_22h47.58.612,T7,2022.2.4,59.9800146553187,
0.1,1000,exp,4,3,51,6,336.35672780001187,337.35674040000595,337.35674040000595,337.35674040000595,space,0.41070269998454023,337.8901045300037,338.1895322000055,338.1895322000055,338.1895322000055,338.1895322000055,589,52,"[2.2740491000004113, 2.4660926000069594, 4.548173000002862, 7.7325188999966485, 2.74882140000409, 3.749088699987624, 1.9485854000085965, 3.414302899996983, 2.3810407999990275, 2.8987961999955587, 3.0976198999996996, 3.265393599998788, 3.9487100999976974, 4.481439399998635, 3.597594699996989, 3.999254199996358, 7.032008900001529, 3.365154099999927, 3.015676099996199, 1.7659911000082502, 2.648781500000041, 2.8318977000017185, 2.9152808000071673, 2.1500518999964697, 8.614664799999446, 3.215225799998734, 0.9324475000030361, 5.95023640000727, 4.215799200013862, 6.364784699995653, 7.0481881000014255, 7.398983599996427, 5.04885400000785, 2.7484919000125956, 2.583444400006556, 4.283461300001363, 5.06425749999471, 4.8981227000040235, 4.298632000005455, 2.3664191999996547, 2.9163875999947777, 2.3318785000010394, 2.9318558999948436, 3.1654191999987233, 3.2981756999943173, 2.4323315999936312, 2.298996299999999, 4.663804600000731, 3.815782700010459, 3.898844299998018, 3.8984705000038957, 3.3812303000013344]","[2.2740601999976207, 2.4661017000034917, 4.548183399994741, 7.73252639999555, 2.748834900005022, 3.749097299994901, 1.9485934000113048, 3.414312000008067, 2.381051500007743, 2.8988053999928525, 3.097628400006215, 3.265400699994643, 3.9487213999964297, 4.481448499995167, 3.597600399996736, 3.9992650999920443, 7.0320212000078754, 3.365163200011011, 3.015685399994254, 1.765999199997168, 2.6487905999965733, 2.831904599996051, 2.9152893999998923, 2.150060799991479, 8.614681199993356, 3.215233700000681, 0.9324563999980455, 5.950248900000588, 4.215808900000411, 6.3647925999976, 7.048197600001004, 7.398991800000658, 5.048862600000575, 2.7485005000053206, 2.5834545999969123, 4.28347439999925, 5.064264699991327, 4.898134200004279, 4.298641500005033, 2.366427399989334, 2.9164003000041703, 2.331883499995456, 2.9318641999998363, 3.165429700005916, 3.298184499988565, 2.432340600003954, 2.299006200002623, 4.663816100000986, 3.815794200010714, 3.898852900005295, 3.8984811999980593, 3.381238400004804]",552415,001,2022-11-10_22h47.58.612,T7,2022.2.4,59.9800146553187,
0.7,1000,exp,4,4,52,11,341.5731072000053,342.57368220000353,342.57368220000353,342.57368220000353,space,1.2937258999882033,344.59029033000405,,344.8894977000018,344.8894977000018,344.8894977000018,380,53,"[2.2740491000004113, 2.4660926000069594, 4.548173000002862, 7.7325188999966485, 2.74882140000409, 3.749088699987624, 1.9485854000085965, 3.414302899996983, 2.3810407999990275, 2.8987961999955587, 3.0976198999996996, 3.265393599998788, 3.9487100999976974, 4.481439399998635, 3.597594699996989, 3.999254199996358, 7.032008900001529, 3.365154099999927, 3.015676099996199, 1.7659911000082502, 2.648781500000041, 2.8318977000017185, 2.9152808000071673, 2.1500518999964697, 8.614664799999446, 3.215225799998734, 0.9324475000030361, 5.95023640000727, 4.215799200013862, 6.364784699995653, 7.0481881000014255, 7.398983599996427, 5.04885400000785, 2.7484919000125956, 2.583444400006556, 4.283461300001363, 5.06425749999471, 4.8981227000040235, 4.298632000005455, 2.3664191999996547, 2.9163875999947777, 2.3318785000010394, 2.9318558999948436, 3.1654191999987233, 3.2981756999943173, 2.4323315999936312, 2.298996299999999, 4.663804600000731, 3.815782700010459, 3.898844299998018, 3.8984705000038957, 3.3812303000013344, 4.34798699998646]","[2.2740601999976207, 2.4661017000034917, 4.548183399994741, 7.73252639999555, 2.748834900005022, 3.749097299994901, 1.9485934000113048, 3.414312000008067, 2.381051500007743, 2.8988053999928525, 3.097628400006215, 3.265400699994643, 3.9487213999964297, 4.481448499995167, 3.597600399996736, 3.9992650999920443, 7.0320212000078754, 3.365163200011011, 3.015685399994254, 1.765999199997168, 2.6487905999965733, 2.831904599996051, 2.9152893999998923, 2.150060799991479, 8.614681199993356, 3.215233700000681, 0.9324563999980455, 5.950248900000588, 4.215808900000411, 6.3647925999976, 7.048197600001004, 7.398991800000658, 5.048862600000575, 2.7485005000053206, 2.5834545999969123, 4.28347439999925, 5.064264699991327, 4.898134200004279, 4.298641500005033, 2.366427399989334, 2.9164003000041703, 2.331883499995456, 2.9318641999998363, 3.165429700005916, 3.298184499988565, 2.432340600003954, 2.299006200002623, 4.663816100000986, 3.815794200010714, 3.898852900005295, 3.8984811999980593, 3.381238400004804, 4.3479965999868]",552415,001,2022-11-10_22h47.58.612,T7,2022.2.4,59.9800146553187,
0.7,1000,exp,4,5,53,8,349.23956430000544,350.2395824000123,350.2395824000123,350.2395824000123,space,0.3740784999827156,351.3399808300048,,351.6395540000085,351.6395540000085,351.6395540000085,480,54,"[2.2740491000004113, 2.4660926000069594, 4.548173000002862, 7.7325188999966485, 2.74882140000409, 3.749088699987624, 1.9485854000085965, 3.414302899996983, 2.3810407999990275, 2.8987961999955587, 3.0976198999996996, 3.265393599998788, 3.9487100999976974, 4.481439399998635, 3.597594699996989, 3.999254199996358, 7.032008900001529, 3.365154099999927, 3.015676099996199, 1.7659911000082502, 2.648781500000041, 2.8318977000017185, 2.9152808000071673, 2.1500518999964697, 8.614664799999446, 3.215225799998734, 0.9324475000030361, 5.95023640000727, 4.215799200013862, 6.364784699995653, 7.0481881000014255, 7.398983599996427, 5.04885400000785, 2.7484919000125956, 2.583444400006556, 4.283461300001363, 5.06425749999471, 4.8981227000040235, 4.298632000005455, 2.3664191999996547, 2.9163875999947777, 2.3318785000010394, 2.9318558999948436, 3.1654191999987233, 3.2981756999943173, 2.4323315999936312, 2.298996299999999, 4.663804600000731, 3.815782700010459, 3.898844299998018, 3.8984705000038957, 3.3812303000013344, 4.34798699998646, 1.8646993000002112]","[2.2740601999976207, 2.4661017000034917, 4.548183399994741, 7.73252639999555, 2.748834900005022, 3.749097299994901, 1.9485934000113048, 3.414312000008067, 2.381051500007743, 2.8988053999928525, 3.097628400006215, 3.265400699994643, 3.9487213999964297, 4.481448499995167, 3.597600399996736, 3.9992650999920443, 7.0320212000078754, 3.365163200011011, 3.015685399994254, 1.765999199997168, 2.6487905999965733, 2.831904599996051, 2.9152893999998923, 2.150060799991479, 8.614681199993356, 3.215233700000681, 0.9324563999980455, 5.950248900000588, 4.215808900000411, 6.3647925999976, 7.048197600001004, 7.398991800000658, 5.048862600000575, 2.7485005000053206, 2.5834545999969123, 4.28347439999925, 5.064264699991327, 4.898134200004279, 4.298641500005033, 2.366427399989334, 2.9164003000041703, 2.331883499995456, 2.9318641999998363, 3.165429700005916, 3.298184499988565, 2.432340600003954, 2.299006200002623, 4.663816100000986, 3.815794200010714, 3.898852900005295, 3.8984811999980593, 3.381238400004804, 4.3479965999868, 1.8647081999952206]",552415,001,2022-11-10_22h47.58.612,T7,2022.2.4,59.9800146553187,
0.1,400,unexp,4,6,54,0,353.5064100000018,354.50641180000093,354.50641180000093,354.50641180000093,space,1.6004280999914045,356.22288913000665,,356.5231637000106,356.5231637000106,356.5231637000106,330 ,55,"[2.2740491000004113, 2.4660926000069594, 4.548173000002862, 7.7325188999966485, 2.74882140000409, 3.749088699987624, 1.9485854000085965, 3.414302899996983, 2.3810407999990275, 2.8987961999955587, 3.0976198999996996, 3.265393599998788, 3.9487100999976974, 4.481439399998635, 3.597594699996989, 3.999254199996358, 7.032008900001529, 3.365154099999927, 3.015676099996199, 1.7659911000082502, 2.648781500000041, 2.8318977000017185, 2.9152808000071673, 2.1500518999964697, 8.614664799999446, 3.215225799998734, 0.9324475000030361, 5.95023640000727, 4.215799200013862, 6.364784699995653, 7.0481881000014255, 7.398983599996427, 5.04885400000785, 2.7484919000125956, 2.583444400006556, 4.283461300001363, 5.06425749999471, 4.8981227000040235, 4.298632000005455, 2.3664191999996547, 2.9163875999947777, 2.3318785000010394, 2.9318558999948436, 3.1654191999987233, 3.2981756999943173, 2.4323315999936312, 2.298996299999999, 4.663804600000731, 3.815782700010459, 3.898844299998018, 3.8984705000038957, 3.3812303000013344, 4.34798699998646, 1.8646993000002112, 9.165606999988086]","[2.2740601999976207, 2.4661017000034917, 4.548183399994741, 7.73252639999555, 2.748834900005022, 3.749097299994901, 1.9485934000113048, 3.414312000008067, 2.381051500007743, 2.8988053999928525, 3.097628400006215, 3.265400699994643, 3.9487213999964297, 4.481448499995167, 3.597600399996736, 3.9992650999920443, 7.0320212000078754, 3.365163200011011, 3.015685399994254, 1.765999199997168, 2.6487905999965733, 2.831904599996051, 2.9152893999998923, 2.150060799991479, 8.614681199993356, 3.215233700000681, 0.9324563999980455, 5.950248900000588, 4.215808900000411, 6.3647925999976, 7.048197600001004, 7.398991800000658, 5.048862600000575, 2.7485005000053206, 2.5834545999969123, 4.28347439999925, 5.064264699991327, 4.898134200004279, 4.298641500005033, 2.366427399989334, 2.9164003000041703, 2.331883499995456, 2.9318641999998363, 3.165429700005916, 3.298184499988565, 2.432340600003954, 2.299006200002623, 4.663816100000986, 3.815794200010714, 3.898852900005295, 3.8984811999980593, 3.381238400004804, 4.3479965999868, 1.8647081999952206, 9.165618299986818]",552415,001,2022-11-10_22h47.58.612,T7,2022.2.4,59.9800146553187,
0.4,400,unexp,4,7,55,1,365.689240000007,366.68911330000265,366.68911330000265,366.68911330000265,space,1.4422108999860939,368.55584943000866,368.85609739999927,368.85609739999927,368.85609739999927,368.85609739999927,290,56,"[2.2740491000004113, 2.4660926000069594, 4.548173000002862, 7.7325188999966485, 2.74882140000409, 3.749088699987624, 1.9485854000085965, 3.414302899996983, 2.3810407999990275, 2.8987961999955587, 3.0976198999996996, 3.265393599998788, 3.9487100999976974, 4.481439399998635, 3.597594699996989, 3.999254199996358, 7.032008900001529, 3.365154099999927, 3.015676099996199, 1.7659911000082502, 2.648781500000041, 2.8318977000017185, 2.9152808000071673, 2.1500518999964697, 8.614664799999446, 3.215225799998734, 0.9324475000030361, 5.95023640000727, 4.215799200013862, 6.364784699995653, 7.0481881000014255, 7.398983599996427, 5.04885400000785, 2.7484919000125956, 2.583444400006556, 4.283461300001363, 5.06425749999471, 4.8981227000040235, 4.298632000005455, 2.3664191999996547, 2.9163875999947777, 2.3318785000010394, 2.9318558999948436, 3.1654191999987233, 3.2981756999943173, 2.4323315999936312, 2.298996299999999, 4.663804600000731, 3.815782700010459, 3.898844299998018, 3.8984705000038957, 3.3812303000013344, 4.34798699998646, 1.8646993000002112, 9.165606999988086, 2.5988947000005282]","[2.2740601999976207, 2.4661017000034917, 4.548183399994741, 7.73252639999555, 2.748834900005022, 3.749097299994901, 1.9485934000113048, 3.414312000008067, 2.381051500007743, 2.8988053999928525, 3.097628400006215, 3.265400699994643, 3.9487213999964297, 4.481448499995167, 3.597600399996736, 3.9992650999920443, 7.0320212000078754, 3.365163200011011, 3.015685399994254, 1.765999199997168, 2.6487905999965733, 2.831904599996051, 2.9152893999998923, 2.150060799991479, 8.614681199993356, 3.215233700000681, 0.9324563999980455, 5.950248900000588, 4.215808900000411, 6.3647925999976, 7.048197600001004, 7.398991800000658, 5.048862600000575, 2.7485005000053206, 2.5834545999969123, 4.28347439999925, 5.064264699991327, 4.898134200004279, 4.298641500005033, 2.366427399989334, 2.9164003000041703, 2.331883499995456, 2.9318641999998363, 3.165429700005916, 3.298184499988565, 2.432340600003954, 2.299006200002623, 4.663816100000986, 3.815794200010714, 3.898852900005295, 3.8984811999980593, 3.381238400004804, 4.3479965999868, 1.8647081999952206, 9.165618299986818, 2.598903200007044]",552415,001,2022-11-10_22h47.58.612,T7,2022.2.4,59.9800146553187,
0.7,400,unexp,4,8,56,2,371.45594900001015,372.45608730000095,372.45608730000095,372.45608730000095,space,1.0346477999846684,374.2227116300084,,374.5228391000128,374.5228391000128,374.5228391000128,280,57,"[2.2740491000004113, 2.4660926000069594, 4.548173000002862, 7.7325188999966485, 2.74882140000409, 3.749088699987624, 1.9485854000085965, 3.414302899996983, 2.3810407999990275, 2.8987961999955587, 3.0976198999996996, 3.265393599998788, 3.9487100999976974, 4.481439399998635, 3.597594699996989, 3.999254199996358, 7.032008900001529, 3.365154099999927, 3.015676099996199, 1.7659911000082502, 2.648781500000041, 2.8318977000017185, 2.9152808000071673, 2.1500518999964697, 8.614664799999446, 3.215225799998734, 0.9324475000030361, 5.95023640000727, 4.215799200013862, 6.364784699995653, 7.0481881000014255, 7.398983599996427, 5.04885400000785, 2.7484919000125956, 2.583444400006556, 4.283461300001363, 5.06425749999471, 4.8981227000040235, 4.298632000005455, 2.3664191999996547, 2.9163875999947777, 2.3318785000010394, 2.9318558999948436, 3.1654191999987233, 3.2981756999943173, 2.4323315999936312, 2.298996299999999, 4.663804600000731, 3.815782700010459, 3.898844299998018, 3.8984705000038957, 3.3812303000013344, 4.34798699998646, 1.8646993000002112, 9.165606999988086, 2.5988947000005282, 6.28190389998781]","[2.2740601999976207, 2.4661017000034917, 4.548183399994741, 7.73252639999555, 2.748834900005022, 3.749097299994901, 1.9485934000113048, 3.414312000008067, 2.381051500007743, 2.8988053999928525, 3.097628400006215, 3.265400699994643, 3.9487213999964297, 4.481448499995167, 3.597600399996736, 3.9992650999920443, 7.0320212000078754, 3.365163200011011, 3.015685399994254, 1.765999199997168, 2.6487905999965733, 2.831904599996051, 2.9152893999998923, 2.150060799991479, 8.614681199993356, 3.215233700000681, 0.9324563999980455, 5.950248900000588, 4.215808900000411, 6.3647925999976, 7.048197600001004, 7.398991800000658, 5.048862600000575, 2.7485005000053206, 2.5834545999969123, 4.28347439999925, 5.064264699991327, 4.898134200004279, 4.298641500005033, 2.366427399989334, 2.9164003000041703, 2.331883499995456, 2.9318641999998363, 3.165429700005916, 3.298184499988565, 2.432340600003954, 2.299006200002623, 4.663816100000986, 3.815794200010714, 3.898852900005295, 3.8984811999980593, 3.381238400004804, 4.3479965999868, 1.8647081999952206, 9.165618299986818, 2.598903200007044, 6.281916199994157]",552415,001,2022-11-10_22h47.58.612,T7,2022.2.4,59.9800146553187,
0.7,1000,exp,4,9,57,5,380.8057235000015,381.8060067000042,381.8060067000042,381.8060067000042,space,0.46853439998812973,383.00539703000976,383.30572580000444,383.30572580000444,383.30572580000444,383.30572580000444,460,58,"[2.2740491000004113, 2.4660926000069594, 4.548173000002862, 7.7325188999966485, 2.74882140000409, 3.749088699987624, 1.9485854000085965, 3.414302899996983, 2.3810407999990275, 2.8987961999955587, 3.0976198999996996, 3.265393599998788, 3.9487100999976974, 4.481439399998635, 3.597594699996989, 3.999254199996358, 7.032008900001529, 3.365154099999927, 3.015676099996199, 1.7659911000082502, 2.648781500000041, 2.8318977000017185, 2.9152808000071673, 2.1500518999964697, 8.614664799999446, 3.215225799998734, 0.9324475000030361, 5.95023640000727, 4.215799200013862, 6.364784699995653, 7.0481881000014255, 7.398983599996427, 5.04885400000785, 2.7484919000125956, 2.583444400006556, 4.283461300001363, 5.06425749999471, 4.8981227000040235, 4.298632000005455, 2.3664191999996547, 2.9163875999947777, 2.3318785000010394, 2.9318558999948436, 3.1654191999987233, 3.2981756999943173, 2.4323315999936312, 2.298996299999999, 4.663804600000731, 3.815782700010459, 3.898844299998018, 3.8984705000038957, 3.3812303000013344, 4.34798699998646, 1.8646993000002112, 9.165606999988086, 2.5988947000005282, 6.28190389998781, 4.215170700001181]","[2.2740601999976207, 2.4661017000034917, 4.548183399994741, 7.73252639999555, 2.748834900005022, 3.749097299994901, 1.9485934000113048, 3.414312000008067, 2.381051500007743, 2.8988053999928525, 3.097628400006215, 3.265400699994643, 3.9487213999964297, 4.481448499995167, 3.597600399996736, 3.9992650999920443, 7.0320212000078754, 3.365163200011011, 3.015685399994254, 1.765999199997168, 2.6487905999965733, 2.831904599996051, 2.9152893999998923, 2.150060799991479, 8.614681199993356, 3.215233700000681, 0.9324563999980455, 5.950248900000588, 4.215808900000411, 6.3647925999976, 7.048197600001004, 7.398991800000658, 5.048862600000575, 2.7485005000053206, 2.5834545999969123, 4.28347439999925, 5.064264699991327, 4.898134200004279, 4.298641500005033, 2.366427399989334, 2.9164003000041703, 2.331883499995456, 2.9318641999998363, 3.165429700005916, 3.298184499988565, 2.432340600003954, 2.299006200002623, 4.663816100000986, 3.815794200010714, 3.898852900005295, 3.8984811999980593, 3.381238400004804, 4.3479965999868, 1.8647081999952206, 9.165618299986818, 2.598903200007044, 6.281916199994157, 4.215180800005328]",552415,001,2022-11-10_22h47.58.612,T7,2022.2.4,59.9800146553187,
0.4,1000,exp,4,10,58,4,387.52248650000547,388.52275190000364,388.52275190000364,388.52275190000364,space,1.403082999997423,390.3553344300046,,390.6553683000093,390.6553683000093,390.6553683000093,632,59,"[2.2740491000004113, 2.4660926000069594, 4.548173000002862, 7.7325188999966485, 2.74882140000409, 3.749088699987624, 1.9485854000085965, 3.414302899996983, 2.3810407999990275, 2.8987961999955587, 3.0976198999996996, 3.265393599998788, 3.9487100999976974, 4.481439399998635, 3.597594699996989, 3.999254199996358, 7.032008900001529, 3.365154099999927, 3.015676099996199, 1.7659911000082502, 2.648781500000041, 2.8318977000017185, 2.9152808000071673, 2.1500518999964697, 8.614664799999446, 3.215225799998734, 0.9324475000030361, 5.95023640000727, 4.215799200013862, 6.364784699995653, 7.0481881000014255, 7.398983599996427, 5.04885400000785, 2.7484919000125956, 2.583444400006556, 4.283461300001363, 5.06425749999471, 4.8981227000040235, 4.298632000005455, 2.3664191999996547, 2.9163875999947777, 2.3318785000010394, 2.9318558999948436, 3.1654191999987233, 3.2981756999943173, 2.4323315999936312, 2.298996299999999, 4.663804600000731, 3.815782700010459, 3.898844299998018, 3.8984705000038957, 3.3812303000013344, 4.34798699998646, 1.8646993000002112, 9.165606999988086, 2.5988947000005282, 6.28190389998781, 4.215170700001181, 7.349142699997174]","[2.2740601999976207, 2.4661017000034917, 4.548183399994741, 7.73252639999555, 2.748834900005022, 3.749097299994901, 1.9485934000113048, 3.414312000008067, 2.381051500007743, 2.8988053999928525, 3.097628400006215, 3.265400699994643, 3.9487213999964297, 4.481448499995167, 3.597600399996736, 3.9992650999920443, 7.0320212000078754, 3.365163200011011, 3.015685399994254, 1.765999199997168, 2.6487905999965733, 2.831904599996051, 2.9152893999998923, 2.150060799991479, 8.614681199993356, 3.215233700000681, 0.9324563999980455, 5.950248900000588, 4.215808900000411, 6.3647925999976, 7.048197600001004, 7.398991800000658, 5.048862600000575, 2.7485005000053206, 2.5834545999969123, 4.28347439999925, 5.064264699991327, 4.898134200004279, 4.298641500005033, 2.366427399989334, 2.9164003000041703, 2.331883499995456, 2.9318641999998363, 3.165429700005916, 3.298184499988565, 2.432340600003954, 2.299006200002623, 4.663816100000986, 3.815794200010714, 3.898852900005295, 3.8984811999980593, 3.381238400004804, 4.3479965999868, 1.8647081999952206, 9.165618299986818, 2.598903200007044, 6.281916199994157, 4.215180800005328, 7.349156800002675]",552415,001,2022-11-10_22h47.58.612,T7,2022.2.4,59.9800146553187,
0.4,1000,exp,4,11,59,10,398.0051334000018,399.0053375999996,399.0053375999996,399.0053375999996,space,0.34929009998450056,399.77197823000023,,400.07254570000805,400.07254570000805,400.07254570000805,792,60,"[2.2740491000004113, 2.4660926000069594, 4.548173000002862, 7.7325188999966485, 2.74882140000409, 3.749088699987624, 1.9485854000085965, 3.414302899996983, 2.3810407999990275, 2.8987961999955587, 3.0976198999996996, 3.265393599998788, 3.9487100999976974, 4.481439399998635, 3.597594699996989, 3.999254199996358, 7.032008900001529, 3.365154099999927, 3.015676099996199, 1.7659911000082502, 2.648781500000041, 2.8318977000017185, 2.9152808000071673, 2.1500518999964697, 8.614664799999446, 3.215225799998734, 0.9324475000030361, 5.95023640000727, 4.215799200013862, 6.364784699995653, 7.0481881000014255, 7.398983599996427, 5.04885400000785, 2.7484919000125956, 2.583444400006556, 4.283461300001363, 5.06425749999471, 4.8981227000040235, 4.298632000005455, 2.3664191999996547, 2.9163875999947777, 2.3318785000010394, 2.9318558999948436, 3.1654191999987233, 3.2981756999943173, 2.4323315999936312, 2.298996299999999, 4.663804600000731, 3.815782700010459, 3.898844299998018, 3.8984705000038957, 3.3812303000013344, 4.34798699998646, 1.8646993000002112, 9.165606999988086, 2.5988947000005282, 6.28190389998781, 4.215170700001181, 7.349142699997174, 4.365584799990756]","[2.2740601999976207, 2.4661017000034917, 4.548183399994741, 7.73252639999555, 2.748834900005022, 3.749097299994901, 1.9485934000113048, 3.414312000008067, 2.381051500007743, 2.8988053999928525, 3.097628400006215, 3.265400699994643, 3.9487213999964297, 4.481448499995167, 3.597600399996736, 3.9992650999920443, 7.0320212000078754, 3.365163200011011, 3.015685399994254, 1.765999199997168, 2.6487905999965733, 2.831904599996051, 2.9152893999998923, 2.150060799991479, 8.614681199993356, 3.215233700000681, 0.9324563999980455, 5.950248900000588, 4.215808900000411, 6.3647925999976, 7.048197600001004, 7.398991800000658, 5.048862600000575, 2.7485005000053206, 2.5834545999969123, 4.28347439999925, 5.064264699991327, 4.898134200004279, 4.298641500005033, 2.366427399989334, 2.9164003000041703, 2.331883499995456, 2.9318641999998363, 3.165429700005916, 3.298184499988565, 2.432340600003954, 2.299006200002623, 4.663816100000986, 3.815794200010714, 3.898852900005295, 3.8984811999980593, 3.381238400004804, 4.3479965999868, 1.8647081999952206, 9.165618299986818, 2.598903200007044, 6.281916199994157, 4.215180800005328, 7.349156800002675, 4.365597399999388]",552415,001,2022-11-10_22h47.58.612,T7,2022.2.4,59.9800146553187,
